Document ID,Participant,Timestamp,Trial,Task,Response,Choice,RT,ITI (s),Reward,Feedback,All Probabilities,Chosen Probability
pmFNzYAz2WjqYfhvefaB,prolific_6127c58c58a7159a79e16b1e,2025-03-19T11:13:22.560Z,0,,,,20880,,,,,
pmFNzYAz2WjqYfhvefaB,prolific_6127c58c58a7159a79e16b1e,2025-03-19T11:13:22.560Z,1,,,,,,,,,
pmFNzYAz2WjqYfhvefaB,prolific_6127c58c58a7159a79e16b1e,2025-03-19T11:13:22.560Z,2,,j,,2364,,,,,
pmFNzYAz2WjqYfhvefaB,prolific_6127c58c58a7159a79e16b1e,2025-03-19T11:13:22.560Z,3,,d,,16759,,,,,
pmFNzYAz2WjqYfhvefaB,prolific_6127c58c58a7159a79e16b1e,2025-03-19T11:13:22.560Z,4,,d,,8435,,,,,
pmFNzYAz2WjqYfhvefaB,prolific_6127c58c58a7159a79e16b1e,2025-03-19T11:13:22.560Z,5,,,,10000,,,,,
pmFNzYAz2WjqYfhvefaB,prolific_6127c58c58a7159a79e16b1e,2025-03-19T11:13:22.560Z,6,response,q,q,1634,,,0.00$,"[0.5,0.3,0.7]",0.5
pmFNzYAz2WjqYfhvefaB,prolific_6127c58c58a7159a79e16b1e,2025-03-19T11:13:22.560Z,7,,,,1000,,,,,
pmFNzYAz2WjqYfhvefaB,prolific_6127c58c58a7159a79e16b1e,2025-03-19T11:13:22.560Z,8,,,,,4.12585882,,,,
pmFNzYAz2WjqYfhvefaB,prolific_6127c58c58a7159a79e16b1e,2025-03-19T11:13:22.560Z,8,,,,,,,,,
pmFNzYAz2WjqYfhvefaB,prolific_6127c58c58a7159a79e16b1e,2025-03-19T11:13:22.560Z,9,response,q,q,2375,,,0.00$,"[0.5,0.3,0.7]",0.5
pmFNzYAz2WjqYfhvefaB,prolific_6127c58c58a7159a79e16b1e,2025-03-19T11:13:22.560Z,10,,,,1000,,,,,
pmFNzYAz2WjqYfhvefaB,prolific_6127c58c58a7159a79e16b1e,2025-03-19T11:13:22.560Z,11,,,,,1.24078153,,,,
pmFNzYAz2WjqYfhvefaB,prolific_6127c58c58a7159a79e16b1e,2025-03-19T11:13:22.560Z,11,,,,,,,,,
pmFNzYAz2WjqYfhvefaB,prolific_6127c58c58a7159a79e16b1e,2025-03-19T11:13:22.560Z,12,response,t,t,677,,1,+1.00$,"[0.5,0.3,0.7]",0.3
pmFNzYAz2WjqYfhvefaB,prolific_6127c58c58a7159a79e16b1e,2025-03-19T11:13:22.560Z,13,,,,1000,,,,,
pmFNzYAz2WjqYfhvefaB,prolific_6127c58c58a7159a79e16b1e,2025-03-19T11:13:22.560Z,14,,,,,2.25875576,,,,
pmFNzYAz2WjqYfhvefaB,prolific_6127c58c58a7159a79e16b1e,2025-03-19T11:13:22.560Z,14,,,,,,,,,
pmFNzYAz2WjqYfhvefaB,prolific_6127c58c58a7159a79e16b1e,2025-03-19T11:13:22.560Z,15,,65,,4993,,,,,
pmFNzYAz2WjqYfhvefaB,prolific_6127c58c58a7159a79e16b1e,2025-03-19T11:13:22.560Z,16,,73,,3025,,,,,
pmFNzYAz2WjqYfhvefaB,prolific_6127c58c58a7159a79e16b1e,2025-03-19T11:13:22.560Z,17,,1,,3568,,,,,
pmFNzYAz2WjqYfhvefaB,prolific_6127c58c58a7159a79e16b1e,2025-03-19T11:13:22.560Z,18,,36,,2124,,,,,
pmFNzYAz2WjqYfhvefaB,prolific_6127c58c58a7159a79e16b1e,2025-03-19T11:13:22.560Z,19,,60,,2693,,,,,
pmFNzYAz2WjqYfhvefaB,prolific_6127c58c58a7159a79e16b1e,2025-03-19T11:13:22.560Z,20,,71,,2536,,,,,
pmFNzYAz2WjqYfhvefaB,prolific_6127c58c58a7159a79e16b1e,2025-03-19T11:13:22.560Z,21,,,,10000,,,,,
pmFNzYAz2WjqYfhvefaB,prolific_6127c58c58a7159a79e16b1e,2025-03-19T11:13:22.560Z,22,response,,t,2500,,1,+1.00$,"[0.5,0.3,0.7]",0.3
pmFNzYAz2WjqYfhvefaB,prolific_6127c58c58a7159a79e16b1e,2025-03-19T11:13:22.560Z,23,,,,1000,,,,,
pmFNzYAz2WjqYfhvefaB,prolific_6127c58c58a7159a79e16b1e,2025-03-19T11:13:22.560Z,24,,,,,1.97473574,,,,
pmFNzYAz2WjqYfhvefaB,prolific_6127c58c58a7159a79e16b1e,2025-03-19T11:13:22.560Z,24,,,,,,,,,
pmFNzYAz2WjqYfhvefaB,prolific_6127c58c58a7159a79e16b1e,2025-03-19T11:13:22.560Z,25,response,q,q,1320,,1,+1.00$,"[0.5,0.3,0.7]",0.5
pmFNzYAz2WjqYfhvefaB,prolific_6127c58c58a7159a79e16b1e,2025-03-19T11:13:22.560Z,26,,,,1000,,,,,
pmFNzYAz2WjqYfhvefaB,prolific_6127c58c58a7159a79e16b1e,2025-03-19T11:13:22.560Z,27,,,,,2.06856255,,,,
pmFNzYAz2WjqYfhvefaB,prolific_6127c58c58a7159a79e16b1e,2025-03-19T11:13:22.560Z,27,,,,,,,,,
pmFNzYAz2WjqYfhvefaB,prolific_6127c58c58a7159a79e16b1e,2025-03-19T11:13:22.560Z,28,response,t,t,573,,,0.00$,"[0.5,0.3,0.7]",0.3
pmFNzYAz2WjqYfhvefaB,prolific_6127c58c58a7159a79e16b1e,2025-03-19T11:13:22.560Z,29,,,,1000,,,,,
pmFNzYAz2WjqYfhvefaB,prolific_6127c58c58a7159a79e16b1e,2025-03-19T11:13:22.560Z,30,,,,,4.77221725,,,,
pmFNzYAz2WjqYfhvefaB,prolific_6127c58c58a7159a79e16b1e,2025-03-19T11:13:22.560Z,30,,,,,,,,,
pmFNzYAz2WjqYfhvefaB,prolific_6127c58c58a7159a79e16b1e,2025-03-19T11:13:22.560Z,31,response,p,p,926,,1,+1.00$,"[0.5,0.3,0.7]",0.7
pmFNzYAz2WjqYfhvefaB,prolific_6127c58c58a7159a79e16b1e,2025-03-19T11:13:22.560Z,32,,,,1000,,,,,
pmFNzYAz2WjqYfhvefaB,prolific_6127c58c58a7159a79e16b1e,2025-03-19T11:13:22.560Z,33,,,,,1.72268074,,,,
pmFNzYAz2WjqYfhvefaB,prolific_6127c58c58a7159a79e16b1e,2025-03-19T11:13:22.560Z,33,,,,,,,,,
pmFNzYAz2WjqYfhvefaB,prolific_6127c58c58a7159a79e16b1e,2025-03-19T11:13:22.560Z,34,response,p,p,1165,,1,+1.00$,"[0.5,0.3,0.7]",0.7
pmFNzYAz2WjqYfhvefaB,prolific_6127c58c58a7159a79e16b1e,2025-03-19T11:13:22.560Z,35,,,,1000,,,,,
pmFNzYAz2WjqYfhvefaB,prolific_6127c58c58a7159a79e16b1e,2025-03-19T11:13:22.560Z,36,,,,,1.8988998,,,,
pmFNzYAz2WjqYfhvefaB,prolific_6127c58c58a7159a79e16b1e,2025-03-19T11:13:22.560Z,36,,,,,,,,,
pmFNzYAz2WjqYfhvefaB,prolific_6127c58c58a7159a79e16b1e,2025-03-19T11:13:22.560Z,37,response,q,q,502,,1,+1.00$,"[0.5,0.3,0.7]",0.5
pmFNzYAz2WjqYfhvefaB,prolific_6127c58c58a7159a79e16b1e,2025-03-19T11:13:22.560Z,38,,,,1000,,,,,
pmFNzYAz2WjqYfhvefaB,prolific_6127c58c58a7159a79e16b1e,2025-03-19T11:13:22.560Z,39,,,,,4.93912462,,,,
pmFNzYAz2WjqYfhvefaB,prolific_6127c58c58a7159a79e16b1e,2025-03-19T11:13:22.560Z,39,,,,,,,,,
pmFNzYAz2WjqYfhvefaB,prolific_6127c58c58a7159a79e16b1e,2025-03-19T11:13:22.560Z,40,response,p,p,467,,1,+1.00$,"[0.5,0.3,0.7]",0.7
pmFNzYAz2WjqYfhvefaB,prolific_6127c58c58a7159a79e16b1e,2025-03-19T11:13:22.560Z,41,,,,1000,,,,,
pmFNzYAz2WjqYfhvefaB,prolific_6127c58c58a7159a79e16b1e,2025-03-19T11:13:22.560Z,42,,,,,3.53667484,,,,
pmFNzYAz2WjqYfhvefaB,prolific_6127c58c58a7159a79e16b1e,2025-03-19T11:13:22.560Z,42,,,,,,,,,
pmFNzYAz2WjqYfhvefaB,prolific_6127c58c58a7159a79e16b1e,2025-03-19T11:13:22.560Z,43,response,q,q,491,,,0.00$,"[0.5,0.3,0.7]",0.5
pmFNzYAz2WjqYfhvefaB,prolific_6127c58c58a7159a79e16b1e,2025-03-19T11:13:22.560Z,44,,,,1000,,,,,
pmFNzYAz2WjqYfhvefaB,prolific_6127c58c58a7159a79e16b1e,2025-03-19T11:13:22.560Z,45,,,,,3.91494587,,,,
pmFNzYAz2WjqYfhvefaB,prolific_6127c58c58a7159a79e16b1e,2025-03-19T11:13:22.560Z,45,,,,,,,,,
pmFNzYAz2WjqYfhvefaB,prolific_6127c58c58a7159a79e16b1e,2025-03-19T11:13:22.560Z,46,response,p,p,272,,1,+1.00$,"[0.5,0.3,0.7]",0.7
pmFNzYAz2WjqYfhvefaB,prolific_6127c58c58a7159a79e16b1e,2025-03-19T11:13:22.560Z,47,,,,1000,,,,,
pmFNzYAz2WjqYfhvefaB,prolific_6127c58c58a7159a79e16b1e,2025-03-19T11:13:22.560Z,48,,,,,3.44448521,,,,
pmFNzYAz2WjqYfhvefaB,prolific_6127c58c58a7159a79e16b1e,2025-03-19T11:13:22.560Z,48,,,,,,,,,
pmFNzYAz2WjqYfhvefaB,prolific_6127c58c58a7159a79e16b1e,2025-03-19T11:13:22.560Z,49,response,p,p,1118,,1,+1.00$,"[0.5,0.3,0.7]",0.7
pmFNzYAz2WjqYfhvefaB,prolific_6127c58c58a7159a79e16b1e,2025-03-19T11:13:22.560Z,50,,,,1000,,,,,
pmFNzYAz2WjqYfhvefaB,prolific_6127c58c58a7159a79e16b1e,2025-03-19T11:13:22.560Z,51,,,,,1.01394596,,,,
pmFNzYAz2WjqYfhvefaB,prolific_6127c58c58a7159a79e16b1e,2025-03-19T11:13:22.560Z,51,,,,,,,,,
pmFNzYAz2WjqYfhvefaB,prolific_6127c58c58a7159a79e16b1e,2025-03-19T11:13:22.560Z,52,response,p,p,786,,1,+1.00$,"[0.5,0.3,0.7]",0.7
pmFNzYAz2WjqYfhvefaB,prolific_6127c58c58a7159a79e16b1e,2025-03-19T11:13:22.560Z,53,,,,1000,,,,,
pmFNzYAz2WjqYfhvefaB,prolific_6127c58c58a7159a79e16b1e,2025-03-19T11:13:22.560Z,54,,,,,3.68446081,,,,
pmFNzYAz2WjqYfhvefaB,prolific_6127c58c58a7159a79e16b1e,2025-03-19T11:13:22.560Z,54,,,,,,,,,
pmFNzYAz2WjqYfhvefaB,prolific_6127c58c58a7159a79e16b1e,2025-03-19T11:13:22.560Z,55,response,p,p,425,,1,+1.00$,"[0.5,0.3,0.7]",0.7
pmFNzYAz2WjqYfhvefaB,prolific_6127c58c58a7159a79e16b1e,2025-03-19T11:13:22.560Z,56,,,,1000,,,,,
pmFNzYAz2WjqYfhvefaB,prolific_6127c58c58a7159a79e16b1e,2025-03-19T11:13:22.560Z,57,,,,,4.50856021,,,,
pmFNzYAz2WjqYfhvefaB,prolific_6127c58c58a7159a79e16b1e,2025-03-19T11:13:22.560Z,57,,,,,,,,,
pmFNzYAz2WjqYfhvefaB,prolific_6127c58c58a7159a79e16b1e,2025-03-19T11:13:22.560Z,58,response,p,p,313,,,0.00$,"[0.5,0.3,0.7]",0.7
pmFNzYAz2WjqYfhvefaB,prolific_6127c58c58a7159a79e16b1e,2025-03-19T11:13:22.560Z,59,,,,1000,,,,,
pmFNzYAz2WjqYfhvefaB,prolific_6127c58c58a7159a79e16b1e,2025-03-19T11:13:22.560Z,60,,,,,4.95281674,,,,
pmFNzYAz2WjqYfhvefaB,prolific_6127c58c58a7159a79e16b1e,2025-03-19T11:13:22.560Z,60,,,,,,,,,
pmFNzYAz2WjqYfhvefaB,prolific_6127c58c58a7159a79e16b1e,2025-03-19T11:13:22.560Z,61,response,p,p,281,,1,+1.00$,"[0.5,0.3,0.7]",0.7
pmFNzYAz2WjqYfhvefaB,prolific_6127c58c58a7159a79e16b1e,2025-03-19T11:13:22.560Z,62,,,,1000,,,,,
pmFNzYAz2WjqYfhvefaB,prolific_6127c58c58a7159a79e16b1e,2025-03-19T11:13:22.560Z,63,,,,,4.44339236,,,,
pmFNzYAz2WjqYfhvefaB,prolific_6127c58c58a7159a79e16b1e,2025-03-19T11:13:22.560Z,63,,,,,,,,,
pmFNzYAz2WjqYfhvefaB,prolific_6127c58c58a7159a79e16b1e,2025-03-19T11:13:22.560Z,64,response,p,p,244,,1,+1.00$,"[0.5,0.3,0.7]",0.7
pmFNzYAz2WjqYfhvefaB,prolific_6127c58c58a7159a79e16b1e,2025-03-19T11:13:22.560Z,65,,,,1000,,,,,
pmFNzYAz2WjqYfhvefaB,prolific_6127c58c58a7159a79e16b1e,2025-03-19T11:13:22.560Z,66,,,,,4.65645066,,,,
pmFNzYAz2WjqYfhvefaB,prolific_6127c58c58a7159a79e16b1e,2025-03-19T11:13:22.560Z,66,,,,,,,,,
pmFNzYAz2WjqYfhvefaB,prolific_6127c58c58a7159a79e16b1e,2025-03-19T11:13:22.560Z,67,response,p,p,384,,1,+1.00$,"[0.5,0.3,0.7]",0.7
pmFNzYAz2WjqYfhvefaB,prolific_6127c58c58a7159a79e16b1e,2025-03-19T11:13:22.560Z,68,,,,1000,,,,,
pmFNzYAz2WjqYfhvefaB,prolific_6127c58c58a7159a79e16b1e,2025-03-19T11:13:22.560Z,69,,,,,3.97178517,,,,
pmFNzYAz2WjqYfhvefaB,prolific_6127c58c58a7159a79e16b1e,2025-03-19T11:13:22.560Z,69,,,,,,,,,
pmFNzYAz2WjqYfhvefaB,prolific_6127c58c58a7159a79e16b1e,2025-03-19T11:13:22.560Z,70,response,p,p,542,,,0.00$,"[0.5,0.3,0.7]",0.7
pmFNzYAz2WjqYfhvefaB,prolific_6127c58c58a7159a79e16b1e,2025-03-19T11:13:22.560Z,71,,,,1000,,,,,
pmFNzYAz2WjqYfhvefaB,prolific_6127c58c58a7159a79e16b1e,2025-03-19T11:13:22.560Z,72,,,,,4.12585882,,,,
pmFNzYAz2WjqYfhvefaB,prolific_6127c58c58a7159a79e16b1e,2025-03-19T11:13:22.560Z,72,,,,,,,,,
pmFNzYAz2WjqYfhvefaB,prolific_6127c58c58a7159a79e16b1e,2025-03-19T11:13:22.560Z,73,response,p,p,260,,1,+1.00$,"[0.5,0.3,0.7]",0.7
pmFNzYAz2WjqYfhvefaB,prolific_6127c58c58a7159a79e16b1e,2025-03-19T11:13:22.560Z,74,,,,1000,,,,,
pmFNzYAz2WjqYfhvefaB,prolific_6127c58c58a7159a79e16b1e,2025-03-19T11:13:22.560Z,75,,,,,3.654616,,,,
pmFNzYAz2WjqYfhvefaB,prolific_6127c58c58a7159a79e16b1e,2025-03-19T11:13:22.560Z,75,,,,,,,,,
pmFNzYAz2WjqYfhvefaB,prolific_6127c58c58a7159a79e16b1e,2025-03-19T11:13:22.560Z,76,response,t,t,256,,,0.00$,"[0.5,0.3,0.7]",0.3
pmFNzYAz2WjqYfhvefaB,prolific_6127c58c58a7159a79e16b1e,2025-03-19T11:13:22.560Z,77,,,,1000,,,,,
pmFNzYAz2WjqYfhvefaB,prolific_6127c58c58a7159a79e16b1e,2025-03-19T11:13:22.560Z,78,,,,,1.87549279,,,,
pmFNzYAz2WjqYfhvefaB,prolific_6127c58c58a7159a79e16b1e,2025-03-19T11:13:22.560Z,78,,,,,,,,,
pmFNzYAz2WjqYfhvefaB,prolific_6127c58c58a7159a79e16b1e,2025-03-19T11:13:22.560Z,79,response,p,p,379,,1,+1.00$,"[0.5,0.3,0.7]",0.7
pmFNzYAz2WjqYfhvefaB,prolific_6127c58c58a7159a79e16b1e,2025-03-19T11:13:22.560Z,80,,,,1000,,,,,
pmFNzYAz2WjqYfhvefaB,prolific_6127c58c58a7159a79e16b1e,2025-03-19T11:13:22.560Z,81,,,,,1.34170206,,,,
pmFNzYAz2WjqYfhvefaB,prolific_6127c58c58a7159a79e16b1e,2025-03-19T11:13:22.560Z,81,,,,,,,,,
pmFNzYAz2WjqYfhvefaB,prolific_6127c58c58a7159a79e16b1e,2025-03-19T11:13:22.560Z,82,response,p,p,722,,1,+1.00$,"[0.5,0.3,0.7]",0.7
pmFNzYAz2WjqYfhvefaB,prolific_6127c58c58a7159a79e16b1e,2025-03-19T11:13:22.560Z,83,,,,1000,,,,,
pmFNzYAz2WjqYfhvefaB,prolific_6127c58c58a7159a79e16b1e,2025-03-19T11:13:22.560Z,84,,,,,4.58203134,,,,
pmFNzYAz2WjqYfhvefaB,prolific_6127c58c58a7159a79e16b1e,2025-03-19T11:13:22.560Z,84,,,,,,,,,
pmFNzYAz2WjqYfhvefaB,prolific_6127c58c58a7159a79e16b1e,2025-03-19T11:13:22.560Z,85,response,p,p,2246,,1,+1.00$,"[0.5,0.3,0.7]",0.7
pmFNzYAz2WjqYfhvefaB,prolific_6127c58c58a7159a79e16b1e,2025-03-19T11:13:22.560Z,86,,,,1000,,,,,
pmFNzYAz2WjqYfhvefaB,prolific_6127c58c58a7159a79e16b1e,2025-03-19T11:13:22.560Z,87,,,,,2.11754048,,,,
pmFNzYAz2WjqYfhvefaB,prolific_6127c58c58a7159a79e16b1e,2025-03-19T11:13:22.560Z,87,,,,,,,,,
pmFNzYAz2WjqYfhvefaB,prolific_6127c58c58a7159a79e16b1e,2025-03-19T11:13:22.560Z,88,response,p,p,1646,,1,+1.00$,"[0.5,0.3,0.7]",0.7
pmFNzYAz2WjqYfhvefaB,prolific_6127c58c58a7159a79e16b1e,2025-03-19T11:13:22.560Z,89,,,,1000,,,,,
pmFNzYAz2WjqYfhvefaB,prolific_6127c58c58a7159a79e16b1e,2025-03-19T11:13:22.560Z,90,,,,,2.68921955,,,,
pmFNzYAz2WjqYfhvefaB,prolific_6127c58c58a7159a79e16b1e,2025-03-19T11:13:22.560Z,90,,,,,,,,,
pmFNzYAz2WjqYfhvefaB,prolific_6127c58c58a7159a79e16b1e,2025-03-19T11:13:22.560Z,91,response,p,p,457,,,0.00$,"[0.5,0.3,0.7]",0.7
pmFNzYAz2WjqYfhvefaB,prolific_6127c58c58a7159a79e16b1e,2025-03-19T11:13:22.560Z,92,,,,1000,,,,,
pmFNzYAz2WjqYfhvefaB,prolific_6127c58c58a7159a79e16b1e,2025-03-19T11:13:22.560Z,93,,,,,1.22203299,,,,
pmFNzYAz2WjqYfhvefaB,prolific_6127c58c58a7159a79e16b1e,2025-03-19T11:13:22.560Z,93,,,,,,,,,
pmFNzYAz2WjqYfhvefaB,prolific_6127c58c58a7159a79e16b1e,2025-03-19T11:13:22.560Z,94,response,p,p,369,,,0.00$,"[0.5,0.3,0.7]",0.7
pmFNzYAz2WjqYfhvefaB,prolific_6127c58c58a7159a79e16b1e,2025-03-19T11:13:22.560Z,95,,,,1000,,,,,
pmFNzYAz2WjqYfhvefaB,prolific_6127c58c58a7159a79e16b1e,2025-03-19T11:13:22.560Z,96,,,,,2.87804185,,,,
pmFNzYAz2WjqYfhvefaB,prolific_6127c58c58a7159a79e16b1e,2025-03-19T11:13:22.560Z,96,,,,,,,,,
pmFNzYAz2WjqYfhvefaB,prolific_6127c58c58a7159a79e16b1e,2025-03-19T11:13:22.560Z,97,response,p,p,396,,,0.00$,"[0.5,0.3,0.7]",0.7
pmFNzYAz2WjqYfhvefaB,prolific_6127c58c58a7159a79e16b1e,2025-03-19T11:13:22.560Z,98,,,,1000,,,,,
pmFNzYAz2WjqYfhvefaB,prolific_6127c58c58a7159a79e16b1e,2025-03-19T11:13:22.560Z,99,,,,,2.64379115,,,,
pmFNzYAz2WjqYfhvefaB,prolific_6127c58c58a7159a79e16b1e,2025-03-19T11:13:22.560Z,99,,,,,,,,,
pmFNzYAz2WjqYfhvefaB,prolific_6127c58c58a7159a79e16b1e,2025-03-19T11:13:22.560Z,100,response,p,p,342,,1,+1.00$,"[0.5,0.3,0.7]",0.7
pmFNzYAz2WjqYfhvefaB,prolific_6127c58c58a7159a79e16b1e,2025-03-19T11:13:22.560Z,101,,,,1000,,,,,
pmFNzYAz2WjqYfhvefaB,prolific_6127c58c58a7159a79e16b1e,2025-03-19T11:13:22.560Z,102,,,,,4.50775926,,,,
pmFNzYAz2WjqYfhvefaB,prolific_6127c58c58a7159a79e16b1e,2025-03-19T11:13:22.560Z,102,,,,,,,,,
pmFNzYAz2WjqYfhvefaB,prolific_6127c58c58a7159a79e16b1e,2025-03-19T11:13:22.560Z,103,response,p,p,301,,1,+1.00$,"[0.5,0.3,0.7]",0.7
pmFNzYAz2WjqYfhvefaB,prolific_6127c58c58a7159a79e16b1e,2025-03-19T11:13:22.560Z,104,,,,1000,,,,,
pmFNzYAz2WjqYfhvefaB,prolific_6127c58c58a7159a79e16b1e,2025-03-19T11:13:22.560Z,105,,,,,2.5956608,,,,
pmFNzYAz2WjqYfhvefaB,prolific_6127c58c58a7159a79e16b1e,2025-03-19T11:13:22.560Z,105,,,,,,,,,
pmFNzYAz2WjqYfhvefaB,prolific_6127c58c58a7159a79e16b1e,2025-03-19T11:13:22.560Z,106,response,p,p,508,,,0.00$,"[0.5,0.3,0.7]",0.7
pmFNzYAz2WjqYfhvefaB,prolific_6127c58c58a7159a79e16b1e,2025-03-19T11:13:22.560Z,107,,,,1000,,,,,
pmFNzYAz2WjqYfhvefaB,prolific_6127c58c58a7159a79e16b1e,2025-03-19T11:13:22.560Z,108,,,,,3.17386958,,,,
pmFNzYAz2WjqYfhvefaB,prolific_6127c58c58a7159a79e16b1e,2025-03-19T11:13:22.560Z,108,,,,,,,,,
pmFNzYAz2WjqYfhvefaB,prolific_6127c58c58a7159a79e16b1e,2025-03-19T11:13:22.560Z,109,response,p,p,426,,1,+1.00$,"[0.5,0.3,0.7]",0.7
pmFNzYAz2WjqYfhvefaB,prolific_6127c58c58a7159a79e16b1e,2025-03-19T11:13:22.560Z,110,,,,1000,,,,,
pmFNzYAz2WjqYfhvefaB,prolific_6127c58c58a7159a79e16b1e,2025-03-19T11:13:22.560Z,111,,,,,3.99800967,,,,
pmFNzYAz2WjqYfhvefaB,prolific_6127c58c58a7159a79e16b1e,2025-03-19T11:13:22.560Z,111,,,,,,,,,
pmFNzYAz2WjqYfhvefaB,prolific_6127c58c58a7159a79e16b1e,2025-03-19T11:13:22.560Z,112,response,p,p,677,,1,+1.00$,"[0.5,0.3,0.7]",0.7
pmFNzYAz2WjqYfhvefaB,prolific_6127c58c58a7159a79e16b1e,2025-03-19T11:13:22.560Z,113,,,,1000,,,,,
pmFNzYAz2WjqYfhvefaB,prolific_6127c58c58a7159a79e16b1e,2025-03-19T11:13:22.560Z,114,,,,,3.88535747,,,,
pmFNzYAz2WjqYfhvefaB,prolific_6127c58c58a7159a79e16b1e,2025-03-19T11:13:22.560Z,114,,,,,,,,,
pmFNzYAz2WjqYfhvefaB,prolific_6127c58c58a7159a79e16b1e,2025-03-19T11:13:22.560Z,115,response,p,p,413,,,0.00$,"[0.5,0.3,0.7]",0.7
pmFNzYAz2WjqYfhvefaB,prolific_6127c58c58a7159a79e16b1e,2025-03-19T11:13:22.560Z,116,,,,1000,,,,,
pmFNzYAz2WjqYfhvefaB,prolific_6127c58c58a7159a79e16b1e,2025-03-19T11:13:22.560Z,117,,,,,3.3403206,,,,
pmFNzYAz2WjqYfhvefaB,prolific_6127c58c58a7159a79e16b1e,2025-03-19T11:13:22.560Z,117,,,,,,,,,
pmFNzYAz2WjqYfhvefaB,prolific_6127c58c58a7159a79e16b1e,2025-03-19T11:13:22.560Z,118,response,p,p,391,,1,+1.00$,"[0.5,0.3,0.7]",0.7
pmFNzYAz2WjqYfhvefaB,prolific_6127c58c58a7159a79e16b1e,2025-03-19T11:13:22.560Z,119,,,,1000,,,,,
pmFNzYAz2WjqYfhvefaB,prolific_6127c58c58a7159a79e16b1e,2025-03-19T11:13:22.560Z,120,,,,,1.24415086,,,,
pmFNzYAz2WjqYfhvefaB,prolific_6127c58c58a7159a79e16b1e,2025-03-19T11:13:22.560Z,120,,,,,,,,,
pmFNzYAz2WjqYfhvefaB,prolific_6127c58c58a7159a79e16b1e,2025-03-19T11:13:22.560Z,121,response,p,p,1332,,1,+1.00$,"[0.5,0.3,0.7]",0.7
pmFNzYAz2WjqYfhvefaB,prolific_6127c58c58a7159a79e16b1e,2025-03-19T11:13:22.560Z,122,,,,1000,,,,,
pmFNzYAz2WjqYfhvefaB,prolific_6127c58c58a7159a79e16b1e,2025-03-19T11:13:22.560Z,123,,,,,4.42389611,,,,
pmFNzYAz2WjqYfhvefaB,prolific_6127c58c58a7159a79e16b1e,2025-03-19T11:13:22.560Z,123,,,,,,,,,
pmFNzYAz2WjqYfhvefaB,prolific_6127c58c58a7159a79e16b1e,2025-03-19T11:13:22.560Z,124,response,p,p,338,,,0.00$,"[0.5,0.3,0.7]",0.7
pmFNzYAz2WjqYfhvefaB,prolific_6127c58c58a7159a79e16b1e,2025-03-19T11:13:22.560Z,125,,,,1000,,,,,
pmFNzYAz2WjqYfhvefaB,prolific_6127c58c58a7159a79e16b1e,2025-03-19T11:13:22.560Z,126,,,,,1.87287147,,,,
pmFNzYAz2WjqYfhvefaB,prolific_6127c58c58a7159a79e16b1e,2025-03-19T11:13:22.560Z,126,,,,,,,,,
pmFNzYAz2WjqYfhvefaB,prolific_6127c58c58a7159a79e16b1e,2025-03-19T11:13:22.560Z,127,response,q,q,483,,1,+1.00$,"[0.5,0.3,0.7]",0.5
pmFNzYAz2WjqYfhvefaB,prolific_6127c58c58a7159a79e16b1e,2025-03-19T11:13:22.560Z,128,,,,1000,,,,,
pmFNzYAz2WjqYfhvefaB,prolific_6127c58c58a7159a79e16b1e,2025-03-19T11:13:22.560Z,129,,,,,2.85765018,,,,
pmFNzYAz2WjqYfhvefaB,prolific_6127c58c58a7159a79e16b1e,2025-03-19T11:13:22.560Z,129,,,,,,,,,
pmFNzYAz2WjqYfhvefaB,prolific_6127c58c58a7159a79e16b1e,2025-03-19T11:13:22.560Z,130,response,q,q,738,,,0.00$,"[0.5,0.3,0.7]",0.5
pmFNzYAz2WjqYfhvefaB,prolific_6127c58c58a7159a79e16b1e,2025-03-19T11:13:22.560Z,131,,,,1000,,,,,
pmFNzYAz2WjqYfhvefaB,prolific_6127c58c58a7159a79e16b1e,2025-03-19T11:13:22.560Z,132,,,,,4.71875611,,,,
pmFNzYAz2WjqYfhvefaB,prolific_6127c58c58a7159a79e16b1e,2025-03-19T11:13:22.560Z,132,,,,,,,,,
pmFNzYAz2WjqYfhvefaB,prolific_6127c58c58a7159a79e16b1e,2025-03-19T11:13:22.560Z,133,response,p,p,412,,1,+1.00$,"[0.5,0.3,0.7]",0.7
pmFNzYAz2WjqYfhvefaB,prolific_6127c58c58a7159a79e16b1e,2025-03-19T11:13:22.560Z,134,,,,1000,,,,,
pmFNzYAz2WjqYfhvefaB,prolific_6127c58c58a7159a79e16b1e,2025-03-19T11:13:22.560Z,135,,,,,1.30162451,,,,
pmFNzYAz2WjqYfhvefaB,prolific_6127c58c58a7159a79e16b1e,2025-03-19T11:13:22.560Z,135,,,,,,,,,
pmFNzYAz2WjqYfhvefaB,prolific_6127c58c58a7159a79e16b1e,2025-03-19T11:13:22.560Z,136,response,p,p,701,,1,+1.00$,"[0.5,0.3,0.7]",0.7
pmFNzYAz2WjqYfhvefaB,prolific_6127c58c58a7159a79e16b1e,2025-03-19T11:13:22.560Z,137,,,,1000,,,,,
pmFNzYAz2WjqYfhvefaB,prolific_6127c58c58a7159a79e16b1e,2025-03-19T11:13:22.560Z,138,,,,,1.24078153,,,,
pmFNzYAz2WjqYfhvefaB,prolific_6127c58c58a7159a79e16b1e,2025-03-19T11:13:22.560Z,138,,,,,,,,,
pmFNzYAz2WjqYfhvefaB,prolific_6127c58c58a7159a79e16b1e,2025-03-19T11:13:22.560Z,139,response,p,p,2199,,1,+1.00$,"[0.5,0.3,0.7]",0.7
pmFNzYAz2WjqYfhvefaB,prolific_6127c58c58a7159a79e16b1e,2025-03-19T11:13:22.560Z,140,,,,1000,,,,,
pmFNzYAz2WjqYfhvefaB,prolific_6127c58c58a7159a79e16b1e,2025-03-19T11:13:22.560Z,141,,,,,2.25875576,,,,
pmFNzYAz2WjqYfhvefaB,prolific_6127c58c58a7159a79e16b1e,2025-03-19T11:13:22.560Z,141,,,,,,,,,
pmFNzYAz2WjqYfhvefaB,prolific_6127c58c58a7159a79e16b1e,2025-03-19T11:13:22.560Z,142,response,p,p,553,,,0.00$,"[0.5,0.3,0.7]",0.7
pmFNzYAz2WjqYfhvefaB,prolific_6127c58c58a7159a79e16b1e,2025-03-19T11:13:22.560Z,143,,,,1000,,,,,
pmFNzYAz2WjqYfhvefaB,prolific_6127c58c58a7159a79e16b1e,2025-03-19T11:13:22.560Z,144,,,,,3.93897413,,,,
pmFNzYAz2WjqYfhvefaB,prolific_6127c58c58a7159a79e16b1e,2025-03-19T11:13:22.560Z,144,,,,,,,,,
pmFNzYAz2WjqYfhvefaB,prolific_6127c58c58a7159a79e16b1e,2025-03-19T11:13:22.560Z,145,response,p,p,364,,1,+1.00$,"[0.5,0.3,0.7]",0.7
pmFNzYAz2WjqYfhvefaB,prolific_6127c58c58a7159a79e16b1e,2025-03-19T11:13:22.560Z,146,,,,1000,,,,,
pmFNzYAz2WjqYfhvefaB,prolific_6127c58c58a7159a79e16b1e,2025-03-19T11:13:22.560Z,147,,,,,4.71725242,,,,
pmFNzYAz2WjqYfhvefaB,prolific_6127c58c58a7159a79e16b1e,2025-03-19T11:13:22.560Z,147,,,,,,,,,
pmFNzYAz2WjqYfhvefaB,prolific_6127c58c58a7159a79e16b1e,2025-03-19T11:13:22.560Z,148,,71,,5755,,,,,
pmFNzYAz2WjqYfhvefaB,prolific_6127c58c58a7159a79e16b1e,2025-03-19T11:13:22.560Z,149,,70,,4654,,,,,
pmFNzYAz2WjqYfhvefaB,prolific_6127c58c58a7159a79e16b1e,2025-03-19T11:13:22.560Z,150,,,,3892,,,,,
pmFNzYAz2WjqYfhvefaB,prolific_6127c58c58a7159a79e16b1e,2025-03-19T11:13:22.560Z,151,,97,,3597,,,,,
pmFNzYAz2WjqYfhvefaB,prolific_6127c58c58a7159a79e16b1e,2025-03-19T11:13:22.560Z,152,,93,,4811,,,,,
pmFNzYAz2WjqYfhvefaB,prolific_6127c58c58a7159a79e16b1e,2025-03-19T11:13:22.560Z,153,,97,,5613,,,,,
pmFNzYAz2WjqYfhvefaB,prolific_6127c58c58a7159a79e16b1e,2025-03-19T11:13:22.560Z,154,,,,10000,,,,,
pmFNzYAz2WjqYfhvefaB,prolific_6127c58c58a7159a79e16b1e,2025-03-19T11:13:22.560Z,155,response,q,q,2340,,,0.00$,"[0.3,0.7,0.5]",0.3
pmFNzYAz2WjqYfhvefaB,prolific_6127c58c58a7159a79e16b1e,2025-03-19T11:13:22.560Z,156,,,,1000,,,,,
pmFNzYAz2WjqYfhvefaB,prolific_6127c58c58a7159a79e16b1e,2025-03-19T11:13:22.560Z,157,,,,,4.93912462,,,,
pmFNzYAz2WjqYfhvefaB,prolific_6127c58c58a7159a79e16b1e,2025-03-19T11:13:22.560Z,157,,,,,,,,,
pmFNzYAz2WjqYfhvefaB,prolific_6127c58c58a7159a79e16b1e,2025-03-19T11:13:22.560Z,158,response,q,q,474,,,0.00$,"[0.3,0.7,0.5]",0.3
pmFNzYAz2WjqYfhvefaB,prolific_6127c58c58a7159a79e16b1e,2025-03-19T11:13:22.560Z,159,,,,1000,,,,,
pmFNzYAz2WjqYfhvefaB,prolific_6127c58c58a7159a79e16b1e,2025-03-19T11:13:22.560Z,160,,,,,1.87549279,,,,
pmFNzYAz2WjqYfhvefaB,prolific_6127c58c58a7159a79e16b1e,2025-03-19T11:13:22.560Z,160,,,,,,,,,
pmFNzYAz2WjqYfhvefaB,prolific_6127c58c58a7159a79e16b1e,2025-03-19T11:13:22.560Z,161,response,t,t,634,,1,+1.00$,"[0.3,0.7,0.5]",0.7
pmFNzYAz2WjqYfhvefaB,prolific_6127c58c58a7159a79e16b1e,2025-03-19T11:13:22.560Z,162,,,,1000,,,,,
pmFNzYAz2WjqYfhvefaB,prolific_6127c58c58a7159a79e16b1e,2025-03-19T11:13:22.560Z,163,,,,,2.85765018,,,,
pmFNzYAz2WjqYfhvefaB,prolific_6127c58c58a7159a79e16b1e,2025-03-19T11:13:22.560Z,163,,,,,,,,,
pmFNzYAz2WjqYfhvefaB,prolific_6127c58c58a7159a79e16b1e,2025-03-19T11:13:22.560Z,164,response,t,t,595,,1,+1.00$,"[0.3,0.7,0.5]",0.7
pmFNzYAz2WjqYfhvefaB,prolific_6127c58c58a7159a79e16b1e,2025-03-19T11:13:22.560Z,165,,,,1000,,,,,
pmFNzYAz2WjqYfhvefaB,prolific_6127c58c58a7159a79e16b1e,2025-03-19T11:13:22.560Z,166,,,,,1.97473574,,,,
pmFNzYAz2WjqYfhvefaB,prolific_6127c58c58a7159a79e16b1e,2025-03-19T11:13:22.560Z,166,,,,,,,,,
pmFNzYAz2WjqYfhvefaB,prolific_6127c58c58a7159a79e16b1e,2025-03-19T11:13:22.560Z,167,response,p,p,393,,,0.00$,"[0.3,0.7,0.5]",0.5
pmFNzYAz2WjqYfhvefaB,prolific_6127c58c58a7159a79e16b1e,2025-03-19T11:13:22.560Z,168,,,,1000,,,,,
pmFNzYAz2WjqYfhvefaB,prolific_6127c58c58a7159a79e16b1e,2025-03-19T11:13:22.560Z,169,,,,,3.97178517,,,,
pmFNzYAz2WjqYfhvefaB,prolific_6127c58c58a7159a79e16b1e,2025-03-19T11:13:22.560Z,169,,,,,,,,,
pmFNzYAz2WjqYfhvefaB,prolific_6127c58c58a7159a79e16b1e,2025-03-19T11:13:22.560Z,170,response,p,p,308,,1,+1.00$,"[0.3,0.7,0.5]",0.5
pmFNzYAz2WjqYfhvefaB,prolific_6127c58c58a7159a79e16b1e,2025-03-19T11:13:22.560Z,171,,,,1000,,,,,
pmFNzYAz2WjqYfhvefaB,prolific_6127c58c58a7159a79e16b1e,2025-03-19T11:13:22.560Z,172,,,,,2.68921955,,,,
pmFNzYAz2WjqYfhvefaB,prolific_6127c58c58a7159a79e16b1e,2025-03-19T11:13:22.560Z,172,,,,,,,,,
pmFNzYAz2WjqYfhvefaB,prolific_6127c58c58a7159a79e16b1e,2025-03-19T11:13:22.560Z,173,response,t,t,470,,1,+1.00$,"[0.3,0.7,0.5]",0.7
pmFNzYAz2WjqYfhvefaB,prolific_6127c58c58a7159a79e16b1e,2025-03-19T11:13:22.560Z,174,,,,1000,,,,,
pmFNzYAz2WjqYfhvefaB,prolific_6127c58c58a7159a79e16b1e,2025-03-19T11:13:22.560Z,175,,,,,4.42389611,,,,
pmFNzYAz2WjqYfhvefaB,prolific_6127c58c58a7159a79e16b1e,2025-03-19T11:13:22.560Z,175,,,,,,,,,
pmFNzYAz2WjqYfhvefaB,prolific_6127c58c58a7159a79e16b1e,2025-03-19T11:13:22.560Z,176,response,t,t,504,,1,+1.00$,"[0.3,0.7,0.5]",0.7
pmFNzYAz2WjqYfhvefaB,prolific_6127c58c58a7159a79e16b1e,2025-03-19T11:13:22.560Z,177,,,,1000,,,,,
pmFNzYAz2WjqYfhvefaB,prolific_6127c58c58a7159a79e16b1e,2025-03-19T11:13:22.560Z,178,,,,,3.99800967,,,,
pmFNzYAz2WjqYfhvefaB,prolific_6127c58c58a7159a79e16b1e,2025-03-19T11:13:22.560Z,178,,,,,,,,,
pmFNzYAz2WjqYfhvefaB,prolific_6127c58c58a7159a79e16b1e,2025-03-19T11:13:22.560Z,179,response,t,t,424,,,0.00$,"[0.3,0.7,0.5]",0.7
pmFNzYAz2WjqYfhvefaB,prolific_6127c58c58a7159a79e16b1e,2025-03-19T11:13:22.560Z,180,,,,1000,,,,,
pmFNzYAz2WjqYfhvefaB,prolific_6127c58c58a7159a79e16b1e,2025-03-19T11:13:22.560Z,181,,,,,4.71725242,,,,
pmFNzYAz2WjqYfhvefaB,prolific_6127c58c58a7159a79e16b1e,2025-03-19T11:13:22.560Z,181,,,,,,,,,
pmFNzYAz2WjqYfhvefaB,prolific_6127c58c58a7159a79e16b1e,2025-03-19T11:13:22.560Z,182,response,t,t,280,,1,+1.00$,"[0.3,0.7,0.5]",0.7
pmFNzYAz2WjqYfhvefaB,prolific_6127c58c58a7159a79e16b1e,2025-03-19T11:13:22.560Z,183,,,,1000,,,,,
pmFNzYAz2WjqYfhvefaB,prolific_6127c58c58a7159a79e16b1e,2025-03-19T11:13:22.560Z,184,,,,,4.95281674,,,,
pmFNzYAz2WjqYfhvefaB,prolific_6127c58c58a7159a79e16b1e,2025-03-19T11:13:22.560Z,184,,,,,,,,,
pmFNzYAz2WjqYfhvefaB,prolific_6127c58c58a7159a79e16b1e,2025-03-19T11:13:22.560Z,185,response,t,t,335,,1,+1.00$,"[0.3,0.7,0.5]",0.7
pmFNzYAz2WjqYfhvefaB,prolific_6127c58c58a7159a79e16b1e,2025-03-19T11:13:22.560Z,186,,,,1000,,,,,
pmFNzYAz2WjqYfhvefaB,prolific_6127c58c58a7159a79e16b1e,2025-03-19T11:13:22.560Z,187,,,,,2.64379115,,,,
pmFNzYAz2WjqYfhvefaB,prolific_6127c58c58a7159a79e16b1e,2025-03-19T11:13:22.560Z,187,,,,,,,,,
pmFNzYAz2WjqYfhvefaB,prolific_6127c58c58a7159a79e16b1e,2025-03-19T11:13:22.560Z,188,response,q,q,314,,1,+1.00$,"[0.3,0.7,0.5]",0.3
pmFNzYAz2WjqYfhvefaB,prolific_6127c58c58a7159a79e16b1e,2025-03-19T11:13:22.560Z,189,,,,1000,,,,,
pmFNzYAz2WjqYfhvefaB,prolific_6127c58c58a7159a79e16b1e,2025-03-19T11:13:22.560Z,190,,,,,4.75169756,,,,
pmFNzYAz2WjqYfhvefaB,prolific_6127c58c58a7159a79e16b1e,2025-03-19T11:13:22.560Z,190,,,,,,,,,
pmFNzYAz2WjqYfhvefaB,prolific_6127c58c58a7159a79e16b1e,2025-03-19T11:13:22.560Z,191,response,q,q,236,,,0.00$,"[0.3,0.7,0.5]",0.3
pmFNzYAz2WjqYfhvefaB,prolific_6127c58c58a7159a79e16b1e,2025-03-19T11:13:22.560Z,192,,,,1000,,,,,
pmFNzYAz2WjqYfhvefaB,prolific_6127c58c58a7159a79e16b1e,2025-03-19T11:13:22.560Z,193,,,,,4.12585882,,,,
pmFNzYAz2WjqYfhvefaB,prolific_6127c58c58a7159a79e16b1e,2025-03-19T11:13:22.560Z,193,,,,,,,,,
pmFNzYAz2WjqYfhvefaB,prolific_6127c58c58a7159a79e16b1e,2025-03-19T11:13:22.560Z,194,response,p,p,361,,,0.00$,"[0.3,0.7,0.5]",0.5
pmFNzYAz2WjqYfhvefaB,prolific_6127c58c58a7159a79e16b1e,2025-03-19T11:13:22.560Z,195,,,,1000,,,,,
pmFNzYAz2WjqYfhvefaB,prolific_6127c58c58a7159a79e16b1e,2025-03-19T11:13:22.560Z,196,,,,,2.5956608,,,,
pmFNzYAz2WjqYfhvefaB,prolific_6127c58c58a7159a79e16b1e,2025-03-19T11:13:22.560Z,196,,,,,,,,,
pmFNzYAz2WjqYfhvefaB,prolific_6127c58c58a7159a79e16b1e,2025-03-19T11:13:22.560Z,197,response,p,p,415,,1,+1.00$,"[0.3,0.7,0.5]",0.5
pmFNzYAz2WjqYfhvefaB,prolific_6127c58c58a7159a79e16b1e,2025-03-19T11:13:22.560Z,198,,,,1000,,,,,
pmFNzYAz2WjqYfhvefaB,prolific_6127c58c58a7159a79e16b1e,2025-03-19T11:13:22.560Z,199,,,,,4.58203134,,,,
pmFNzYAz2WjqYfhvefaB,prolific_6127c58c58a7159a79e16b1e,2025-03-19T11:13:22.560Z,199,,,,,,,,,
pmFNzYAz2WjqYfhvefaB,prolific_6127c58c58a7159a79e16b1e,2025-03-19T11:13:22.560Z,200,response,p,p,325,,,0.00$,"[0.3,0.7,0.5]",0.5
pmFNzYAz2WjqYfhvefaB,prolific_6127c58c58a7159a79e16b1e,2025-03-19T11:13:22.560Z,201,,,,1000,,,,,
pmFNzYAz2WjqYfhvefaB,prolific_6127c58c58a7159a79e16b1e,2025-03-19T11:13:22.560Z,202,,,,,1.8988998,,,,
pmFNzYAz2WjqYfhvefaB,prolific_6127c58c58a7159a79e16b1e,2025-03-19T11:13:22.560Z,202,,,,,,,,,
pmFNzYAz2WjqYfhvefaB,prolific_6127c58c58a7159a79e16b1e,2025-03-19T11:13:22.560Z,203,response,q,q,417,,,0.00$,"[0.3,0.7,0.5]",0.3
pmFNzYAz2WjqYfhvefaB,prolific_6127c58c58a7159a79e16b1e,2025-03-19T11:13:22.560Z,204,,,,1000,,,,,
pmFNzYAz2WjqYfhvefaB,prolific_6127c58c58a7159a79e16b1e,2025-03-19T11:13:22.560Z,205,,,,,2.06856255,,,,
pmFNzYAz2WjqYfhvefaB,prolific_6127c58c58a7159a79e16b1e,2025-03-19T11:13:22.560Z,205,,,,,,,,,
pmFNzYAz2WjqYfhvefaB,prolific_6127c58c58a7159a79e16b1e,2025-03-19T11:13:22.560Z,206,response,q,q,250,,,0.00$,"[0.3,0.7,0.5]",0.3
pmFNzYAz2WjqYfhvefaB,prolific_6127c58c58a7159a79e16b1e,2025-03-19T11:13:22.560Z,207,,,,1000,,,,,
pmFNzYAz2WjqYfhvefaB,prolific_6127c58c58a7159a79e16b1e,2025-03-19T11:13:22.560Z,208,,,,,3.93897413,,,,
pmFNzYAz2WjqYfhvefaB,prolific_6127c58c58a7159a79e16b1e,2025-03-19T11:13:22.560Z,208,,,,,,,,,
pmFNzYAz2WjqYfhvefaB,prolific_6127c58c58a7159a79e16b1e,2025-03-19T11:13:22.560Z,209,response,p,p,399,,1,+1.00$,"[0.3,0.7,0.5]",0.5
pmFNzYAz2WjqYfhvefaB,prolific_6127c58c58a7159a79e16b1e,2025-03-19T11:13:22.560Z,210,,,,1000,,,,,
pmFNzYAz2WjqYfhvefaB,prolific_6127c58c58a7159a79e16b1e,2025-03-19T11:13:22.560Z,211,,,,,3.88535747,,,,
pmFNzYAz2WjqYfhvefaB,prolific_6127c58c58a7159a79e16b1e,2025-03-19T11:13:22.560Z,211,,,,,,,,,
pmFNzYAz2WjqYfhvefaB,prolific_6127c58c58a7159a79e16b1e,2025-03-19T11:13:22.560Z,212,response,t,t,306,,1,+1.00$,"[0.3,0.7,0.5]",0.7
pmFNzYAz2WjqYfhvefaB,prolific_6127c58c58a7159a79e16b1e,2025-03-19T11:13:22.560Z,213,,,,1000,,,,,
pmFNzYAz2WjqYfhvefaB,prolific_6127c58c58a7159a79e16b1e,2025-03-19T11:13:22.560Z,214,,,,,1.72268074,,,,
pmFNzYAz2WjqYfhvefaB,prolific_6127c58c58a7159a79e16b1e,2025-03-19T11:13:22.560Z,214,,,,,,,,,
pmFNzYAz2WjqYfhvefaB,prolific_6127c58c58a7159a79e16b1e,2025-03-19T11:13:22.560Z,215,response,t,t,2257,,1,+1.00$,"[0.3,0.7,0.5]",0.7
pmFNzYAz2WjqYfhvefaB,prolific_6127c58c58a7159a79e16b1e,2025-03-19T11:13:22.560Z,216,,,,1000,,,,,
pmFNzYAz2WjqYfhvefaB,prolific_6127c58c58a7159a79e16b1e,2025-03-19T11:13:22.560Z,217,,,,,2.11754048,,,,
pmFNzYAz2WjqYfhvefaB,prolific_6127c58c58a7159a79e16b1e,2025-03-19T11:13:22.560Z,217,,,,,,,,,
pmFNzYAz2WjqYfhvefaB,prolific_6127c58c58a7159a79e16b1e,2025-03-19T11:13:22.560Z,218,response,,q,2500,,,0.00$,"[0.3,0.7,0.5]",0.3
pmFNzYAz2WjqYfhvefaB,prolific_6127c58c58a7159a79e16b1e,2025-03-19T11:13:22.560Z,219,,,,1000,,,,,
pmFNzYAz2WjqYfhvefaB,prolific_6127c58c58a7159a79e16b1e,2025-03-19T11:13:22.560Z,220,,,,,4.44339236,,,,
pmFNzYAz2WjqYfhvefaB,prolific_6127c58c58a7159a79e16b1e,2025-03-19T11:13:22.560Z,220,,,,,,,,,
pmFNzYAz2WjqYfhvefaB,prolific_6127c58c58a7159a79e16b1e,2025-03-19T11:13:22.560Z,221,response,t,t,272,,,0.00$,"[0.3,0.7,0.5]",0.7
pmFNzYAz2WjqYfhvefaB,prolific_6127c58c58a7159a79e16b1e,2025-03-19T11:13:22.560Z,222,,,,1000,,,,,
pmFNzYAz2WjqYfhvefaB,prolific_6127c58c58a7159a79e16b1e,2025-03-19T11:13:22.560Z,223,,,,,3.3403206,,,,
pmFNzYAz2WjqYfhvefaB,prolific_6127c58c58a7159a79e16b1e,2025-03-19T11:13:22.560Z,223,,,,,,,,,
pmFNzYAz2WjqYfhvefaB,prolific_6127c58c58a7159a79e16b1e,2025-03-19T11:13:22.560Z,224,response,t,t,309,,,0.00$,"[0.3,0.7,0.5]",0.7
pmFNzYAz2WjqYfhvefaB,prolific_6127c58c58a7159a79e16b1e,2025-03-19T11:13:22.560Z,225,,,,1000,,,,,
pmFNzYAz2WjqYfhvefaB,prolific_6127c58c58a7159a79e16b1e,2025-03-19T11:13:22.560Z,226,,,,,4.77221725,,,,
pmFNzYAz2WjqYfhvefaB,prolific_6127c58c58a7159a79e16b1e,2025-03-19T11:13:22.560Z,226,,,,,,,,,
pmFNzYAz2WjqYfhvefaB,prolific_6127c58c58a7159a79e16b1e,2025-03-19T11:13:22.560Z,227,response,t,t,520,,1,+1.00$,"[0.3,0.7,0.5]",0.7
pmFNzYAz2WjqYfhvefaB,prolific_6127c58c58a7159a79e16b1e,2025-03-19T11:13:22.560Z,228,,,,1000,,,,,
pmFNzYAz2WjqYfhvefaB,prolific_6127c58c58a7159a79e16b1e,2025-03-19T11:13:22.560Z,229,,,,,3.17386958,,,,
pmFNzYAz2WjqYfhvefaB,prolific_6127c58c58a7159a79e16b1e,2025-03-19T11:13:22.560Z,229,,,,,,,,,
pmFNzYAz2WjqYfhvefaB,prolific_6127c58c58a7159a79e16b1e,2025-03-19T11:13:22.560Z,230,response,t,t,440,,,0.00$,"[0.3,0.7,0.5]",0.7
pmFNzYAz2WjqYfhvefaB,prolific_6127c58c58a7159a79e16b1e,2025-03-19T11:13:22.560Z,231,,,,1000,,,,,
pmFNzYAz2WjqYfhvefaB,prolific_6127c58c58a7159a79e16b1e,2025-03-19T11:13:22.560Z,232,,,,,1.24078153,,,,
pmFNzYAz2WjqYfhvefaB,prolific_6127c58c58a7159a79e16b1e,2025-03-19T11:13:22.560Z,232,,,,,,,,,
pmFNzYAz2WjqYfhvefaB,prolific_6127c58c58a7159a79e16b1e,2025-03-19T11:13:22.560Z,233,response,t,t,500,,1,+1.00$,"[0.3,0.7,0.5]",0.7
pmFNzYAz2WjqYfhvefaB,prolific_6127c58c58a7159a79e16b1e,2025-03-19T11:13:22.560Z,234,,,,1000,,,,,
pmFNzYAz2WjqYfhvefaB,prolific_6127c58c58a7159a79e16b1e,2025-03-19T11:13:22.560Z,235,,,,,1.87287147,,,,
pmFNzYAz2WjqYfhvefaB,prolific_6127c58c58a7159a79e16b1e,2025-03-19T11:13:22.560Z,235,,,,,,,,,
pmFNzYAz2WjqYfhvefaB,prolific_6127c58c58a7159a79e16b1e,2025-03-19T11:13:22.560Z,236,response,t,t,384,,1,+1.00$,"[0.3,0.7,0.5]",0.7
pmFNzYAz2WjqYfhvefaB,prolific_6127c58c58a7159a79e16b1e,2025-03-19T11:13:22.560Z,237,,,,1000,,,,,
pmFNzYAz2WjqYfhvefaB,prolific_6127c58c58a7159a79e16b1e,2025-03-19T11:13:22.560Z,238,,,,,3.53667484,,,,
pmFNzYAz2WjqYfhvefaB,prolific_6127c58c58a7159a79e16b1e,2025-03-19T11:13:22.560Z,238,,,,,,,,,
pmFNzYAz2WjqYfhvefaB,prolific_6127c58c58a7159a79e16b1e,2025-03-19T11:13:22.560Z,239,response,t,t,270,,1,+1.00$,"[0.3,0.7,0.5]",0.7
pmFNzYAz2WjqYfhvefaB,prolific_6127c58c58a7159a79e16b1e,2025-03-19T11:13:22.560Z,240,,,,1000,,,,,
pmFNzYAz2WjqYfhvefaB,prolific_6127c58c58a7159a79e16b1e,2025-03-19T11:13:22.560Z,241,,,,,1.24415086,,,,
pmFNzYAz2WjqYfhvefaB,prolific_6127c58c58a7159a79e16b1e,2025-03-19T11:13:22.560Z,241,,,,,,,,,
pmFNzYAz2WjqYfhvefaB,prolific_6127c58c58a7159a79e16b1e,2025-03-19T11:13:22.560Z,242,response,t,t,619,,1,+1.00$,"[0.3,0.7,0.5]",0.7
pmFNzYAz2WjqYfhvefaB,prolific_6127c58c58a7159a79e16b1e,2025-03-19T11:13:22.560Z,243,,,,1000,,,,,
pmFNzYAz2WjqYfhvefaB,prolific_6127c58c58a7159a79e16b1e,2025-03-19T11:13:22.560Z,244,,,,,2.87804185,,,,
pmFNzYAz2WjqYfhvefaB,prolific_6127c58c58a7159a79e16b1e,2025-03-19T11:13:22.560Z,244,,,,,,,,,
pmFNzYAz2WjqYfhvefaB,prolific_6127c58c58a7159a79e16b1e,2025-03-19T11:13:22.560Z,245,response,q,q,301,,1,+1.00$,"[0.3,0.7,0.5]",0.3
pmFNzYAz2WjqYfhvefaB,prolific_6127c58c58a7159a79e16b1e,2025-03-19T11:13:22.560Z,246,,,,1000,,,,,
pmFNzYAz2WjqYfhvefaB,prolific_6127c58c58a7159a79e16b1e,2025-03-19T11:13:22.560Z,247,,,,,1.01394596,,,,
pmFNzYAz2WjqYfhvefaB,prolific_6127c58c58a7159a79e16b1e,2025-03-19T11:13:22.560Z,247,,,,,,,,,
pmFNzYAz2WjqYfhvefaB,prolific_6127c58c58a7159a79e16b1e,2025-03-19T11:13:22.560Z,248,response,q,q,322,,,0.00$,"[0.3,0.7,0.5]",0.3
pmFNzYAz2WjqYfhvefaB,prolific_6127c58c58a7159a79e16b1e,2025-03-19T11:13:22.560Z,249,,,,1000,,,,,
pmFNzYAz2WjqYfhvefaB,prolific_6127c58c58a7159a79e16b1e,2025-03-19T11:13:22.560Z,250,,,,,1.34170206,,,,
pmFNzYAz2WjqYfhvefaB,prolific_6127c58c58a7159a79e16b1e,2025-03-19T11:13:22.560Z,250,,,,,,,,,
pmFNzYAz2WjqYfhvefaB,prolific_6127c58c58a7159a79e16b1e,2025-03-19T11:13:22.560Z,251,response,q,q,460,,,0.00$,"[0.3,0.7,0.5]",0.3
pmFNzYAz2WjqYfhvefaB,prolific_6127c58c58a7159a79e16b1e,2025-03-19T11:13:22.560Z,252,,,,1000,,,,,
pmFNzYAz2WjqYfhvefaB,prolific_6127c58c58a7159a79e16b1e,2025-03-19T11:13:22.560Z,253,,,,,4.65645066,,,,
pmFNzYAz2WjqYfhvefaB,prolific_6127c58c58a7159a79e16b1e,2025-03-19T11:13:22.560Z,253,,,,,,,,,
pmFNzYAz2WjqYfhvefaB,prolific_6127c58c58a7159a79e16b1e,2025-03-19T11:13:22.560Z,254,response,q,q,278,,,0.00$,"[0.3,0.7,0.5]",0.3
pmFNzYAz2WjqYfhvefaB,prolific_6127c58c58a7159a79e16b1e,2025-03-19T11:13:22.560Z,255,,,,1000,,,,,
pmFNzYAz2WjqYfhvefaB,prolific_6127c58c58a7159a79e16b1e,2025-03-19T11:13:22.560Z,256,,,,,2.25875576,,,,
pmFNzYAz2WjqYfhvefaB,prolific_6127c58c58a7159a79e16b1e,2025-03-19T11:13:22.560Z,256,,,,,,,,,
pmFNzYAz2WjqYfhvefaB,prolific_6127c58c58a7159a79e16b1e,2025-03-19T11:13:22.560Z,257,response,q,q,463,,,0.00$,"[0.3,0.7,0.5]",0.3
pmFNzYAz2WjqYfhvefaB,prolific_6127c58c58a7159a79e16b1e,2025-03-19T11:13:22.560Z,258,,,,1000,,,,,
pmFNzYAz2WjqYfhvefaB,prolific_6127c58c58a7159a79e16b1e,2025-03-19T11:13:22.560Z,259,,,,,4.50775926,,,,
pmFNzYAz2WjqYfhvefaB,prolific_6127c58c58a7159a79e16b1e,2025-03-19T11:13:22.560Z,259,,,,,,,,,
pmFNzYAz2WjqYfhvefaB,prolific_6127c58c58a7159a79e16b1e,2025-03-19T11:13:22.560Z,260,response,p,p,486,,,0.00$,"[0.3,0.7,0.5]",0.5
pmFNzYAz2WjqYfhvefaB,prolific_6127c58c58a7159a79e16b1e,2025-03-19T11:13:22.560Z,261,,,,1000,,,,,
pmFNzYAz2WjqYfhvefaB,prolific_6127c58c58a7159a79e16b1e,2025-03-19T11:13:22.560Z,262,,,,,4.71875611,,,,
pmFNzYAz2WjqYfhvefaB,prolific_6127c58c58a7159a79e16b1e,2025-03-19T11:13:22.560Z,262,,,,,,,,,
pmFNzYAz2WjqYfhvefaB,prolific_6127c58c58a7159a79e16b1e,2025-03-19T11:13:22.560Z,263,response,p,p,291,,,0.00$,"[0.3,0.7,0.5]",0.5
pmFNzYAz2WjqYfhvefaB,prolific_6127c58c58a7159a79e16b1e,2025-03-19T11:13:22.560Z,264,,,,1000,,,,,
pmFNzYAz2WjqYfhvefaB,prolific_6127c58c58a7159a79e16b1e,2025-03-19T11:13:22.560Z,265,,,,,3.654616,,,,
pmFNzYAz2WjqYfhvefaB,prolific_6127c58c58a7159a79e16b1e,2025-03-19T11:13:22.560Z,265,,,,,,,,,
pmFNzYAz2WjqYfhvefaB,prolific_6127c58c58a7159a79e16b1e,2025-03-19T11:13:22.560Z,266,response,p,p,286,,1,+1.00$,"[0.3,0.7,0.5]",0.5
pmFNzYAz2WjqYfhvefaB,prolific_6127c58c58a7159a79e16b1e,2025-03-19T11:13:22.560Z,267,,,,1000,,,,,
pmFNzYAz2WjqYfhvefaB,prolific_6127c58c58a7159a79e16b1e,2025-03-19T11:13:22.560Z,268,,,,,3.91494587,,,,
pmFNzYAz2WjqYfhvefaB,prolific_6127c58c58a7159a79e16b1e,2025-03-19T11:13:22.560Z,268,,,,,,,,,
pmFNzYAz2WjqYfhvefaB,prolific_6127c58c58a7159a79e16b1e,2025-03-19T11:13:22.560Z,269,response,p,p,597,,1,+1.00$,"[0.3,0.7,0.5]",0.5
pmFNzYAz2WjqYfhvefaB,prolific_6127c58c58a7159a79e16b1e,2025-03-19T11:13:22.560Z,270,,,,1000,,,,,
pmFNzYAz2WjqYfhvefaB,prolific_6127c58c58a7159a79e16b1e,2025-03-19T11:13:22.560Z,271,,,,,3.44448521,,,,
pmFNzYAz2WjqYfhvefaB,prolific_6127c58c58a7159a79e16b1e,2025-03-19T11:13:22.560Z,271,,,,,,,,,
pmFNzYAz2WjqYfhvefaB,prolific_6127c58c58a7159a79e16b1e,2025-03-19T11:13:22.560Z,272,response,p,p,290,,,0.00$,"[0.3,0.7,0.5]",0.5
pmFNzYAz2WjqYfhvefaB,prolific_6127c58c58a7159a79e16b1e,2025-03-19T11:13:22.560Z,273,,,,1000,,,,,
pmFNzYAz2WjqYfhvefaB,prolific_6127c58c58a7159a79e16b1e,2025-03-19T11:13:22.560Z,274,,,,,4.50856021,,,,
pmFNzYAz2WjqYfhvefaB,prolific_6127c58c58a7159a79e16b1e,2025-03-19T11:13:22.560Z,274,,,,,,,,,
pmFNzYAz2WjqYfhvefaB,prolific_6127c58c58a7159a79e16b1e,2025-03-19T11:13:22.560Z,275,response,p,p,310,,1,+1.00$,"[0.3,0.7,0.5]",0.5
pmFNzYAz2WjqYfhvefaB,prolific_6127c58c58a7159a79e16b1e,2025-03-19T11:13:22.560Z,276,,,,1000,,,,,
pmFNzYAz2WjqYfhvefaB,prolific_6127c58c58a7159a79e16b1e,2025-03-19T11:13:22.560Z,277,,,,,1.30162451,,,,
pmFNzYAz2WjqYfhvefaB,prolific_6127c58c58a7159a79e16b1e,2025-03-19T11:13:22.560Z,277,,,,,,,,,
pmFNzYAz2WjqYfhvefaB,prolific_6127c58c58a7159a79e16b1e,2025-03-19T11:13:22.560Z,278,response,q,q,285,,,0.00$,"[0.3,0.7,0.5]",0.3
pmFNzYAz2WjqYfhvefaB,prolific_6127c58c58a7159a79e16b1e,2025-03-19T11:13:22.560Z,279,,,,1000,,,,,
pmFNzYAz2WjqYfhvefaB,prolific_6127c58c58a7159a79e16b1e,2025-03-19T11:13:22.560Z,280,,,,,3.68446081,,,,
pmFNzYAz2WjqYfhvefaB,prolific_6127c58c58a7159a79e16b1e,2025-03-19T11:13:22.560Z,280,,,,,,,,,
pmFNzYAz2WjqYfhvefaB,prolific_6127c58c58a7159a79e16b1e,2025-03-19T11:13:22.560Z,281,,12,,6397,,,,,
pmFNzYAz2WjqYfhvefaB,prolific_6127c58c58a7159a79e16b1e,2025-03-19T11:13:22.560Z,282,,72,,2553,,,,,
pmFNzYAz2WjqYfhvefaB,prolific_6127c58c58a7159a79e16b1e,2025-03-19T11:13:22.560Z,283,,86,,6643,,,,,
pmFNzYAz2WjqYfhvefaB,prolific_6127c58c58a7159a79e16b1e,2025-03-19T11:13:22.560Z,284,,87,,2877,,,,,
pmFNzYAz2WjqYfhvefaB,prolific_6127c58c58a7159a79e16b1e,2025-03-19T11:13:22.560Z,285,,60,,5239,,,,,
pmFNzYAz2WjqYfhvefaB,prolific_6127c58c58a7159a79e16b1e,2025-03-19T11:13:22.560Z,286,,82,,2908,,,,,
pmFNzYAz2WjqYfhvefaB,prolific_6127c58c58a7159a79e16b1e,2025-03-19T11:13:22.560Z,287,,[object Object],,128793,,,,,
pmFNzYAz2WjqYfhvefaB,prolific_6127c58c58a7159a79e16b1e,2025-03-19T11:13:22.560Z,288,,,,5000,,,,,
cFaQi4KWCZWXjZ10fStD,prolific_677586b643d924c6cb0440a2,2025-03-19T11:13:42.587Z,0,,,,13670,,,,,
cFaQi4KWCZWXjZ10fStD,prolific_677586b643d924c6cb0440a2,2025-03-19T11:13:42.587Z,1,,,,,,,,,
cFaQi4KWCZWXjZ10fStD,prolific_677586b643d924c6cb0440a2,2025-03-19T11:13:42.587Z,2,, ,,2060,,,,,
cFaQi4KWCZWXjZ10fStD,prolific_677586b643d924c6cb0440a2,2025-03-19T11:13:42.587Z,3,, ,,13624,,,,,
cFaQi4KWCZWXjZ10fStD,prolific_677586b643d924c6cb0440a2,2025-03-19T11:13:42.587Z,4,, ,,4828,,,,,
cFaQi4KWCZWXjZ10fStD,prolific_677586b643d924c6cb0440a2,2025-03-19T11:13:42.587Z,5,,,,10000,,,,,
cFaQi4KWCZWXjZ10fStD,prolific_677586b643d924c6cb0440a2,2025-03-19T11:13:42.587Z,6,response,t,t,1286,,,0.00$,"[0.5,0.3,0.7]",0.3
cFaQi4KWCZWXjZ10fStD,prolific_677586b643d924c6cb0440a2,2025-03-19T11:13:42.587Z,7,,,,1000,,,,,
cFaQi4KWCZWXjZ10fStD,prolific_677586b643d924c6cb0440a2,2025-03-19T11:13:42.587Z,8,,,,,2.68921955,,,,
cFaQi4KWCZWXjZ10fStD,prolific_677586b643d924c6cb0440a2,2025-03-19T11:13:42.587Z,8,,,,,,,,,
cFaQi4KWCZWXjZ10fStD,prolific_677586b643d924c6cb0440a2,2025-03-19T11:13:42.587Z,9,response,q,q,1011,,1,+1.00$,"[0.5,0.3,0.7]",0.5
cFaQi4KWCZWXjZ10fStD,prolific_677586b643d924c6cb0440a2,2025-03-19T11:13:42.587Z,10,,,,1000,,,,,
cFaQi4KWCZWXjZ10fStD,prolific_677586b643d924c6cb0440a2,2025-03-19T11:13:42.587Z,11,,,,,3.17386958,,,,
cFaQi4KWCZWXjZ10fStD,prolific_677586b643d924c6cb0440a2,2025-03-19T11:13:42.587Z,11,,,,,,,,,
cFaQi4KWCZWXjZ10fStD,prolific_677586b643d924c6cb0440a2,2025-03-19T11:13:42.587Z,12,response,p,p,580,,1,+1.00$,"[0.5,0.3,0.7]",0.7
cFaQi4KWCZWXjZ10fStD,prolific_677586b643d924c6cb0440a2,2025-03-19T11:13:42.587Z,13,,,,1000,,,,,
cFaQi4KWCZWXjZ10fStD,prolific_677586b643d924c6cb0440a2,2025-03-19T11:13:42.587Z,14,,,,,1.24078153,,,,
cFaQi4KWCZWXjZ10fStD,prolific_677586b643d924c6cb0440a2,2025-03-19T11:13:42.587Z,14,,,,,,,,,
cFaQi4KWCZWXjZ10fStD,prolific_677586b643d924c6cb0440a2,2025-03-19T11:13:42.587Z,15,,100,,8010,,,,,
cFaQi4KWCZWXjZ10fStD,prolific_677586b643d924c6cb0440a2,2025-03-19T11:13:42.587Z,16,,100,,3327,,,,,
cFaQi4KWCZWXjZ10fStD,prolific_677586b643d924c6cb0440a2,2025-03-19T11:13:42.587Z,17,,,,4786,,,,,
cFaQi4KWCZWXjZ10fStD,prolific_677586b643d924c6cb0440a2,2025-03-19T11:13:42.587Z,18,,100,,3531,,,,,
cFaQi4KWCZWXjZ10fStD,prolific_677586b643d924c6cb0440a2,2025-03-19T11:13:42.587Z,19,,100,,2447,,,,,
cFaQi4KWCZWXjZ10fStD,prolific_677586b643d924c6cb0440a2,2025-03-19T11:13:42.587Z,20,,100,,2631,,,,,
cFaQi4KWCZWXjZ10fStD,prolific_677586b643d924c6cb0440a2,2025-03-19T11:13:42.587Z,21,,,,10000,,,,,
cFaQi4KWCZWXjZ10fStD,prolific_677586b643d924c6cb0440a2,2025-03-19T11:13:42.587Z,22,response,p,p,995,,,0.00$,"[0.5,0.3,0.7]",0.7
cFaQi4KWCZWXjZ10fStD,prolific_677586b643d924c6cb0440a2,2025-03-19T11:13:42.587Z,23,,,,1000,,,,,
cFaQi4KWCZWXjZ10fStD,prolific_677586b643d924c6cb0440a2,2025-03-19T11:13:42.587Z,24,,,,,4.44339236,,,,
cFaQi4KWCZWXjZ10fStD,prolific_677586b643d924c6cb0440a2,2025-03-19T11:13:42.587Z,24,,,,,,,,,
cFaQi4KWCZWXjZ10fStD,prolific_677586b643d924c6cb0440a2,2025-03-19T11:13:42.587Z,25,response,t,t,502,,,0.00$,"[0.5,0.3,0.7]",0.3
cFaQi4KWCZWXjZ10fStD,prolific_677586b643d924c6cb0440a2,2025-03-19T11:13:42.587Z,26,,,,1000,,,,,
cFaQi4KWCZWXjZ10fStD,prolific_677586b643d924c6cb0440a2,2025-03-19T11:13:42.587Z,27,,,,,1.24078153,,,,
cFaQi4KWCZWXjZ10fStD,prolific_677586b643d924c6cb0440a2,2025-03-19T11:13:42.587Z,27,,,,,,,,,
cFaQi4KWCZWXjZ10fStD,prolific_677586b643d924c6cb0440a2,2025-03-19T11:13:42.587Z,28,response,q,q,761,,,0.00$,"[0.5,0.3,0.7]",0.5
cFaQi4KWCZWXjZ10fStD,prolific_677586b643d924c6cb0440a2,2025-03-19T11:13:42.587Z,29,,,,1000,,,,,
cFaQi4KWCZWXjZ10fStD,prolific_677586b643d924c6cb0440a2,2025-03-19T11:13:42.587Z,30,,,,,2.85765018,,,,
cFaQi4KWCZWXjZ10fStD,prolific_677586b643d924c6cb0440a2,2025-03-19T11:13:42.587Z,30,,,,,,,,,
cFaQi4KWCZWXjZ10fStD,prolific_677586b643d924c6cb0440a2,2025-03-19T11:13:42.587Z,31,response,q,q,1090,,,0.00$,"[0.5,0.3,0.7]",0.5
cFaQi4KWCZWXjZ10fStD,prolific_677586b643d924c6cb0440a2,2025-03-19T11:13:42.587Z,32,,,,1000,,,,,
cFaQi4KWCZWXjZ10fStD,prolific_677586b643d924c6cb0440a2,2025-03-19T11:13:42.587Z,33,,,,,4.77221725,,,,
cFaQi4KWCZWXjZ10fStD,prolific_677586b643d924c6cb0440a2,2025-03-19T11:13:42.587Z,33,,,,,,,,,
cFaQi4KWCZWXjZ10fStD,prolific_677586b643d924c6cb0440a2,2025-03-19T11:13:42.587Z,34,response,t,t,557,,,0.00$,"[0.5,0.3,0.7]",0.3
cFaQi4KWCZWXjZ10fStD,prolific_677586b643d924c6cb0440a2,2025-03-19T11:13:42.587Z,35,,,,1000,,,,,
cFaQi4KWCZWXjZ10fStD,prolific_677586b643d924c6cb0440a2,2025-03-19T11:13:42.587Z,36,,,,,4.75169756,,,,
cFaQi4KWCZWXjZ10fStD,prolific_677586b643d924c6cb0440a2,2025-03-19T11:13:42.587Z,36,,,,,,,,,
cFaQi4KWCZWXjZ10fStD,prolific_677586b643d924c6cb0440a2,2025-03-19T11:13:42.587Z,37,response,p,p,345,,1,+1.00$,"[0.5,0.3,0.7]",0.7
cFaQi4KWCZWXjZ10fStD,prolific_677586b643d924c6cb0440a2,2025-03-19T11:13:42.587Z,38,,,,1000,,,,,
cFaQi4KWCZWXjZ10fStD,prolific_677586b643d924c6cb0440a2,2025-03-19T11:13:42.587Z,39,,,,,4.58203134,,,,
cFaQi4KWCZWXjZ10fStD,prolific_677586b643d924c6cb0440a2,2025-03-19T11:13:42.587Z,39,,,,,,,,,
cFaQi4KWCZWXjZ10fStD,prolific_677586b643d924c6cb0440a2,2025-03-19T11:13:42.587Z,40,response,p,p,480,,,0.00$,"[0.5,0.3,0.7]",0.7
cFaQi4KWCZWXjZ10fStD,prolific_677586b643d924c6cb0440a2,2025-03-19T11:13:42.587Z,41,,,,1000,,,,,
cFaQi4KWCZWXjZ10fStD,prolific_677586b643d924c6cb0440a2,2025-03-19T11:13:42.587Z,42,,,,,4.12585882,,,,
cFaQi4KWCZWXjZ10fStD,prolific_677586b643d924c6cb0440a2,2025-03-19T11:13:42.587Z,42,,,,,,,,,
cFaQi4KWCZWXjZ10fStD,prolific_677586b643d924c6cb0440a2,2025-03-19T11:13:42.587Z,43,response,p,p,570,,,0.00$,"[0.5,0.3,0.7]",0.7
cFaQi4KWCZWXjZ10fStD,prolific_677586b643d924c6cb0440a2,2025-03-19T11:13:42.587Z,44,,,,1000,,,,,
cFaQi4KWCZWXjZ10fStD,prolific_677586b643d924c6cb0440a2,2025-03-19T11:13:42.587Z,45,,,,,4.93912462,,,,
cFaQi4KWCZWXjZ10fStD,prolific_677586b643d924c6cb0440a2,2025-03-19T11:13:42.587Z,45,,,,,,,,,
cFaQi4KWCZWXjZ10fStD,prolific_677586b643d924c6cb0440a2,2025-03-19T11:13:42.587Z,46,response,p,p,482,,1,+1.00$,"[0.5,0.3,0.7]",0.7
cFaQi4KWCZWXjZ10fStD,prolific_677586b643d924c6cb0440a2,2025-03-19T11:13:42.587Z,47,,,,1000,,,,,
cFaQi4KWCZWXjZ10fStD,prolific_677586b643d924c6cb0440a2,2025-03-19T11:13:42.587Z,48,,,,,1.87549279,,,,
cFaQi4KWCZWXjZ10fStD,prolific_677586b643d924c6cb0440a2,2025-03-19T11:13:42.587Z,48,,,,,,,,,
cFaQi4KWCZWXjZ10fStD,prolific_677586b643d924c6cb0440a2,2025-03-19T11:13:42.587Z,49,response,t,t,410,,,0.00$,"[0.5,0.3,0.7]",0.3
cFaQi4KWCZWXjZ10fStD,prolific_677586b643d924c6cb0440a2,2025-03-19T11:13:42.587Z,50,,,,1000,,,,,
cFaQi4KWCZWXjZ10fStD,prolific_677586b643d924c6cb0440a2,2025-03-19T11:13:42.587Z,51,,,,,1.97473574,,,,
cFaQi4KWCZWXjZ10fStD,prolific_677586b643d924c6cb0440a2,2025-03-19T11:13:42.587Z,51,,,,,,,,,
cFaQi4KWCZWXjZ10fStD,prolific_677586b643d924c6cb0440a2,2025-03-19T11:13:42.587Z,52,response,t,t,466,,,0.00$,"[0.5,0.3,0.7]",0.3
cFaQi4KWCZWXjZ10fStD,prolific_677586b643d924c6cb0440a2,2025-03-19T11:13:42.587Z,53,,,,1000,,,,,
cFaQi4KWCZWXjZ10fStD,prolific_677586b643d924c6cb0440a2,2025-03-19T11:13:42.587Z,54,,,,,1.01394596,,,,
cFaQi4KWCZWXjZ10fStD,prolific_677586b643d924c6cb0440a2,2025-03-19T11:13:42.587Z,54,,,,,,,,,
cFaQi4KWCZWXjZ10fStD,prolific_677586b643d924c6cb0440a2,2025-03-19T11:13:42.587Z,55,response,t,t,483,,1,+1.00$,"[0.5,0.3,0.7]",0.3
cFaQi4KWCZWXjZ10fStD,prolific_677586b643d924c6cb0440a2,2025-03-19T11:13:42.587Z,56,,,,1000,,,,,
cFaQi4KWCZWXjZ10fStD,prolific_677586b643d924c6cb0440a2,2025-03-19T11:13:42.587Z,57,,,,,1.8988998,,,,
cFaQi4KWCZWXjZ10fStD,prolific_677586b643d924c6cb0440a2,2025-03-19T11:13:42.587Z,57,,,,,,,,,
cFaQi4KWCZWXjZ10fStD,prolific_677586b643d924c6cb0440a2,2025-03-19T11:13:42.587Z,58,response,q,q,353,,,0.00$,"[0.5,0.3,0.7]",0.5
cFaQi4KWCZWXjZ10fStD,prolific_677586b643d924c6cb0440a2,2025-03-19T11:13:42.587Z,59,,,,1000,,,,,
cFaQi4KWCZWXjZ10fStD,prolific_677586b643d924c6cb0440a2,2025-03-19T11:13:42.587Z,60,,,,,3.91494587,,,,
cFaQi4KWCZWXjZ10fStD,prolific_677586b643d924c6cb0440a2,2025-03-19T11:13:42.587Z,60,,,,,,,,,
cFaQi4KWCZWXjZ10fStD,prolific_677586b643d924c6cb0440a2,2025-03-19T11:13:42.587Z,61,response,q,q,385,,,0.00$,"[0.5,0.3,0.7]",0.5
cFaQi4KWCZWXjZ10fStD,prolific_677586b643d924c6cb0440a2,2025-03-19T11:13:42.587Z,62,,,,1000,,,,,
cFaQi4KWCZWXjZ10fStD,prolific_677586b643d924c6cb0440a2,2025-03-19T11:13:42.587Z,63,,,,,2.11754048,,,,
cFaQi4KWCZWXjZ10fStD,prolific_677586b643d924c6cb0440a2,2025-03-19T11:13:42.587Z,63,,,,,,,,,
cFaQi4KWCZWXjZ10fStD,prolific_677586b643d924c6cb0440a2,2025-03-19T11:13:42.587Z,64,response,q,q,337,,,0.00$,"[0.5,0.3,0.7]",0.5
cFaQi4KWCZWXjZ10fStD,prolific_677586b643d924c6cb0440a2,2025-03-19T11:13:42.587Z,65,,,,1000,,,,,
cFaQi4KWCZWXjZ10fStD,prolific_677586b643d924c6cb0440a2,2025-03-19T11:13:42.587Z,66,,,,,2.87804185,,,,
cFaQi4KWCZWXjZ10fStD,prolific_677586b643d924c6cb0440a2,2025-03-19T11:13:42.587Z,66,,,,,,,,,
cFaQi4KWCZWXjZ10fStD,prolific_677586b643d924c6cb0440a2,2025-03-19T11:13:42.587Z,67,response,q,q,331,,1,+1.00$,"[0.5,0.3,0.7]",0.5
cFaQi4KWCZWXjZ10fStD,prolific_677586b643d924c6cb0440a2,2025-03-19T11:13:42.587Z,68,,,,1000,,,,,
cFaQi4KWCZWXjZ10fStD,prolific_677586b643d924c6cb0440a2,2025-03-19T11:13:42.587Z,69,,,,,4.50775926,,,,
cFaQi4KWCZWXjZ10fStD,prolific_677586b643d924c6cb0440a2,2025-03-19T11:13:42.587Z,69,,,,,,,,,
cFaQi4KWCZWXjZ10fStD,prolific_677586b643d924c6cb0440a2,2025-03-19T11:13:42.587Z,70,response,q,q,313,,1,+1.00$,"[0.5,0.3,0.7]",0.5
cFaQi4KWCZWXjZ10fStD,prolific_677586b643d924c6cb0440a2,2025-03-19T11:13:42.587Z,71,,,,1000,,,,,
cFaQi4KWCZWXjZ10fStD,prolific_677586b643d924c6cb0440a2,2025-03-19T11:13:42.587Z,72,,,,,3.654616,,,,
cFaQi4KWCZWXjZ10fStD,prolific_677586b643d924c6cb0440a2,2025-03-19T11:13:42.587Z,72,,,,,,,,,
cFaQi4KWCZWXjZ10fStD,prolific_677586b643d924c6cb0440a2,2025-03-19T11:13:42.587Z,73,response,q,q,573,,,0.00$,"[0.5,0.3,0.7]",0.5
cFaQi4KWCZWXjZ10fStD,prolific_677586b643d924c6cb0440a2,2025-03-19T11:13:42.587Z,74,,,,1000,,,,,
cFaQi4KWCZWXjZ10fStD,prolific_677586b643d924c6cb0440a2,2025-03-19T11:13:42.587Z,75,,,,,2.06856255,,,,
cFaQi4KWCZWXjZ10fStD,prolific_677586b643d924c6cb0440a2,2025-03-19T11:13:42.587Z,75,,,,,,,,,
cFaQi4KWCZWXjZ10fStD,prolific_677586b643d924c6cb0440a2,2025-03-19T11:13:42.587Z,76,response,q,q,350,,,0.00$,"[0.5,0.3,0.7]",0.5
cFaQi4KWCZWXjZ10fStD,prolific_677586b643d924c6cb0440a2,2025-03-19T11:13:42.587Z,77,,,,1000,,,,,
cFaQi4KWCZWXjZ10fStD,prolific_677586b643d924c6cb0440a2,2025-03-19T11:13:42.587Z,78,,,,,1.30162451,,,,
cFaQi4KWCZWXjZ10fStD,prolific_677586b643d924c6cb0440a2,2025-03-19T11:13:42.587Z,78,,,,,,,,,
cFaQi4KWCZWXjZ10fStD,prolific_677586b643d924c6cb0440a2,2025-03-19T11:13:42.587Z,79,response,q,q,350,,1,+1.00$,"[0.5,0.3,0.7]",0.5
cFaQi4KWCZWXjZ10fStD,prolific_677586b643d924c6cb0440a2,2025-03-19T11:13:42.587Z,80,,,,1000,,,,,
cFaQi4KWCZWXjZ10fStD,prolific_677586b643d924c6cb0440a2,2025-03-19T11:13:42.587Z,81,,,,,4.50856021,,,,
cFaQi4KWCZWXjZ10fStD,prolific_677586b643d924c6cb0440a2,2025-03-19T11:13:42.587Z,81,,,,,,,,,
cFaQi4KWCZWXjZ10fStD,prolific_677586b643d924c6cb0440a2,2025-03-19T11:13:42.587Z,82,response,t,t,428,,1,+1.00$,"[0.5,0.3,0.7]",0.3
cFaQi4KWCZWXjZ10fStD,prolific_677586b643d924c6cb0440a2,2025-03-19T11:13:42.587Z,83,,,,1000,,,,,
cFaQi4KWCZWXjZ10fStD,prolific_677586b643d924c6cb0440a2,2025-03-19T11:13:42.587Z,84,,,,,1.87287147,,,,
cFaQi4KWCZWXjZ10fStD,prolific_677586b643d924c6cb0440a2,2025-03-19T11:13:42.587Z,84,,,,,,,,,
cFaQi4KWCZWXjZ10fStD,prolific_677586b643d924c6cb0440a2,2025-03-19T11:13:42.587Z,85,response,p,p,570,,1,+1.00$,"[0.5,0.3,0.7]",0.7
cFaQi4KWCZWXjZ10fStD,prolific_677586b643d924c6cb0440a2,2025-03-19T11:13:42.587Z,86,,,,1000,,,,,
cFaQi4KWCZWXjZ10fStD,prolific_677586b643d924c6cb0440a2,2025-03-19T11:13:42.587Z,87,,,,,3.88535747,,,,
cFaQi4KWCZWXjZ10fStD,prolific_677586b643d924c6cb0440a2,2025-03-19T11:13:42.587Z,87,,,,,,,,,
cFaQi4KWCZWXjZ10fStD,prolific_677586b643d924c6cb0440a2,2025-03-19T11:13:42.587Z,88,response,q,q,521,,1,+1.00$,"[0.5,0.3,0.7]",0.5
cFaQi4KWCZWXjZ10fStD,prolific_677586b643d924c6cb0440a2,2025-03-19T11:13:42.587Z,89,,,,1000,,,,,
cFaQi4KWCZWXjZ10fStD,prolific_677586b643d924c6cb0440a2,2025-03-19T11:13:42.587Z,90,,,,,1.72268074,,,,
cFaQi4KWCZWXjZ10fStD,prolific_677586b643d924c6cb0440a2,2025-03-19T11:13:42.587Z,90,,,,,,,,,
cFaQi4KWCZWXjZ10fStD,prolific_677586b643d924c6cb0440a2,2025-03-19T11:13:42.587Z,91,response,t,t,484,,,0.00$,"[0.5,0.3,0.7]",0.3
cFaQi4KWCZWXjZ10fStD,prolific_677586b643d924c6cb0440a2,2025-03-19T11:13:42.587Z,92,,,,1000,,,,,
cFaQi4KWCZWXjZ10fStD,prolific_677586b643d924c6cb0440a2,2025-03-19T11:13:42.587Z,93,,,,,3.68446081,,,,
cFaQi4KWCZWXjZ10fStD,prolific_677586b643d924c6cb0440a2,2025-03-19T11:13:42.587Z,93,,,,,,,,,
cFaQi4KWCZWXjZ10fStD,prolific_677586b643d924c6cb0440a2,2025-03-19T11:13:42.587Z,94,response,p,p,331,,,0.00$,"[0.5,0.3,0.7]",0.7
cFaQi4KWCZWXjZ10fStD,prolific_677586b643d924c6cb0440a2,2025-03-19T11:13:42.587Z,95,,,,1000,,,,,
cFaQi4KWCZWXjZ10fStD,prolific_677586b643d924c6cb0440a2,2025-03-19T11:13:42.587Z,96,,,,,3.99800967,,,,
cFaQi4KWCZWXjZ10fStD,prolific_677586b643d924c6cb0440a2,2025-03-19T11:13:42.587Z,96,,,,,,,,,
cFaQi4KWCZWXjZ10fStD,prolific_677586b643d924c6cb0440a2,2025-03-19T11:13:42.587Z,97,response,p,p,374,,,0.00$,"[0.5,0.3,0.7]",0.7
cFaQi4KWCZWXjZ10fStD,prolific_677586b643d924c6cb0440a2,2025-03-19T11:13:42.587Z,98,,,,1000,,,,,
cFaQi4KWCZWXjZ10fStD,prolific_677586b643d924c6cb0440a2,2025-03-19T11:13:42.587Z,99,,,,,1.24415086,,,,
cFaQi4KWCZWXjZ10fStD,prolific_677586b643d924c6cb0440a2,2025-03-19T11:13:42.587Z,99,,,,,,,,,
cFaQi4KWCZWXjZ10fStD,prolific_677586b643d924c6cb0440a2,2025-03-19T11:13:42.587Z,100,response,t,t,659,,1,+1.00$,"[0.5,0.3,0.7]",0.3
cFaQi4KWCZWXjZ10fStD,prolific_677586b643d924c6cb0440a2,2025-03-19T11:13:42.587Z,101,,,,1000,,,,,
cFaQi4KWCZWXjZ10fStD,prolific_677586b643d924c6cb0440a2,2025-03-19T11:13:42.587Z,102,,,,,3.44448521,,,,
cFaQi4KWCZWXjZ10fStD,prolific_677586b643d924c6cb0440a2,2025-03-19T11:13:42.587Z,102,,,,,,,,,
cFaQi4KWCZWXjZ10fStD,prolific_677586b643d924c6cb0440a2,2025-03-19T11:13:42.587Z,103,response,q,q,335,,1,+1.00$,"[0.5,0.3,0.7]",0.5
cFaQi4KWCZWXjZ10fStD,prolific_677586b643d924c6cb0440a2,2025-03-19T11:13:42.587Z,104,,,,1000,,,,,
cFaQi4KWCZWXjZ10fStD,prolific_677586b643d924c6cb0440a2,2025-03-19T11:13:42.587Z,105,,,,,3.53667484,,,,
cFaQi4KWCZWXjZ10fStD,prolific_677586b643d924c6cb0440a2,2025-03-19T11:13:42.587Z,105,,,,,,,,,
cFaQi4KWCZWXjZ10fStD,prolific_677586b643d924c6cb0440a2,2025-03-19T11:13:42.587Z,106,response,p,p,316,,1,+1.00$,"[0.5,0.3,0.7]",0.7
cFaQi4KWCZWXjZ10fStD,prolific_677586b643d924c6cb0440a2,2025-03-19T11:13:42.587Z,107,,,,1000,,,,,
cFaQi4KWCZWXjZ10fStD,prolific_677586b643d924c6cb0440a2,2025-03-19T11:13:42.587Z,108,,,,,2.64379115,,,,
cFaQi4KWCZWXjZ10fStD,prolific_677586b643d924c6cb0440a2,2025-03-19T11:13:42.587Z,108,,,,,,,,,
cFaQi4KWCZWXjZ10fStD,prolific_677586b643d924c6cb0440a2,2025-03-19T11:13:42.587Z,109,response,t,t,376,,,0.00$,"[0.5,0.3,0.7]",0.3
cFaQi4KWCZWXjZ10fStD,prolific_677586b643d924c6cb0440a2,2025-03-19T11:13:42.587Z,110,,,,1000,,,,,
cFaQi4KWCZWXjZ10fStD,prolific_677586b643d924c6cb0440a2,2025-03-19T11:13:42.587Z,111,,,,,4.42389611,,,,
cFaQi4KWCZWXjZ10fStD,prolific_677586b643d924c6cb0440a2,2025-03-19T11:13:42.587Z,111,,,,,,,,,
cFaQi4KWCZWXjZ10fStD,prolific_677586b643d924c6cb0440a2,2025-03-19T11:13:42.587Z,112,response,q,q,321,,,0.00$,"[0.5,0.3,0.7]",0.5
cFaQi4KWCZWXjZ10fStD,prolific_677586b643d924c6cb0440a2,2025-03-19T11:13:42.587Z,113,,,,1000,,,,,
cFaQi4KWCZWXjZ10fStD,prolific_677586b643d924c6cb0440a2,2025-03-19T11:13:42.587Z,114,,,,,2.25875576,,,,
cFaQi4KWCZWXjZ10fStD,prolific_677586b643d924c6cb0440a2,2025-03-19T11:13:42.587Z,114,,,,,,,,,
cFaQi4KWCZWXjZ10fStD,prolific_677586b643d924c6cb0440a2,2025-03-19T11:13:42.587Z,115,response,q,q,472,,1,+1.00$,"[0.5,0.3,0.7]",0.5
cFaQi4KWCZWXjZ10fStD,prolific_677586b643d924c6cb0440a2,2025-03-19T11:13:42.587Z,116,,,,1000,,,,,
cFaQi4KWCZWXjZ10fStD,prolific_677586b643d924c6cb0440a2,2025-03-19T11:13:42.587Z,117,,,,,2.68921955,,,,
cFaQi4KWCZWXjZ10fStD,prolific_677586b643d924c6cb0440a2,2025-03-19T11:13:42.587Z,117,,,,,,,,,
cFaQi4KWCZWXjZ10fStD,prolific_677586b643d924c6cb0440a2,2025-03-19T11:13:42.587Z,118,response,t,t,395,,1,+1.00$,"[0.5,0.3,0.7]",0.3
cFaQi4KWCZWXjZ10fStD,prolific_677586b643d924c6cb0440a2,2025-03-19T11:13:42.587Z,119,,,,1000,,,,,
cFaQi4KWCZWXjZ10fStD,prolific_677586b643d924c6cb0440a2,2025-03-19T11:13:42.587Z,120,,,,,3.97178517,,,,
cFaQi4KWCZWXjZ10fStD,prolific_677586b643d924c6cb0440a2,2025-03-19T11:13:42.587Z,120,,,,,,,,,
cFaQi4KWCZWXjZ10fStD,prolific_677586b643d924c6cb0440a2,2025-03-19T11:13:42.587Z,121,response,p,p,332,,,0.00$,"[0.5,0.3,0.7]",0.7
cFaQi4KWCZWXjZ10fStD,prolific_677586b643d924c6cb0440a2,2025-03-19T11:13:42.587Z,122,,,,1000,,,,,
cFaQi4KWCZWXjZ10fStD,prolific_677586b643d924c6cb0440a2,2025-03-19T11:13:42.587Z,123,,,,,4.65645066,,,,
cFaQi4KWCZWXjZ10fStD,prolific_677586b643d924c6cb0440a2,2025-03-19T11:13:42.587Z,123,,,,,,,,,
cFaQi4KWCZWXjZ10fStD,prolific_677586b643d924c6cb0440a2,2025-03-19T11:13:42.587Z,124,response,t,t,450,,,0.00$,"[0.5,0.3,0.7]",0.3
cFaQi4KWCZWXjZ10fStD,prolific_677586b643d924c6cb0440a2,2025-03-19T11:13:42.587Z,125,,,,1000,,,,,
cFaQi4KWCZWXjZ10fStD,prolific_677586b643d924c6cb0440a2,2025-03-19T11:13:42.587Z,126,,,,,3.3403206,,,,
cFaQi4KWCZWXjZ10fStD,prolific_677586b643d924c6cb0440a2,2025-03-19T11:13:42.587Z,126,,,,,,,,,
cFaQi4KWCZWXjZ10fStD,prolific_677586b643d924c6cb0440a2,2025-03-19T11:13:42.587Z,127,response,p,p,352,,1,+1.00$,"[0.5,0.3,0.7]",0.7
cFaQi4KWCZWXjZ10fStD,prolific_677586b643d924c6cb0440a2,2025-03-19T11:13:42.587Z,128,,,,1000,,,,,
cFaQi4KWCZWXjZ10fStD,prolific_677586b643d924c6cb0440a2,2025-03-19T11:13:42.587Z,129,,,,,3.93897413,,,,
cFaQi4KWCZWXjZ10fStD,prolific_677586b643d924c6cb0440a2,2025-03-19T11:13:42.587Z,129,,,,,,,,,
cFaQi4KWCZWXjZ10fStD,prolific_677586b643d924c6cb0440a2,2025-03-19T11:13:42.587Z,130,response,q,q,427,,1,+1.00$,"[0.5,0.3,0.7]",0.5
cFaQi4KWCZWXjZ10fStD,prolific_677586b643d924c6cb0440a2,2025-03-19T11:13:42.587Z,131,,,,1000,,,,,
cFaQi4KWCZWXjZ10fStD,prolific_677586b643d924c6cb0440a2,2025-03-19T11:13:42.587Z,132,,,,,3.17386958,,,,
cFaQi4KWCZWXjZ10fStD,prolific_677586b643d924c6cb0440a2,2025-03-19T11:13:42.587Z,132,,,,,,,,,
cFaQi4KWCZWXjZ10fStD,prolific_677586b643d924c6cb0440a2,2025-03-19T11:13:42.587Z,133,response,,t,2500,,1,+1.00$,"[0.5,0.3,0.7]",0.3
cFaQi4KWCZWXjZ10fStD,prolific_677586b643d924c6cb0440a2,2025-03-19T11:13:42.587Z,134,,,,1000,,,,,
cFaQi4KWCZWXjZ10fStD,prolific_677586b643d924c6cb0440a2,2025-03-19T11:13:42.587Z,135,,,,,4.71875611,,,,
cFaQi4KWCZWXjZ10fStD,prolific_677586b643d924c6cb0440a2,2025-03-19T11:13:42.587Z,135,,,,,,,,,
cFaQi4KWCZWXjZ10fStD,prolific_677586b643d924c6cb0440a2,2025-03-19T11:13:42.587Z,136,response,t,t,1677,,,0.00$,"[0.5,0.3,0.7]",0.3
cFaQi4KWCZWXjZ10fStD,prolific_677586b643d924c6cb0440a2,2025-03-19T11:13:42.587Z,137,,,,1000,,,,,
cFaQi4KWCZWXjZ10fStD,prolific_677586b643d924c6cb0440a2,2025-03-19T11:13:42.587Z,138,,,,,2.5956608,,,,
cFaQi4KWCZWXjZ10fStD,prolific_677586b643d924c6cb0440a2,2025-03-19T11:13:42.587Z,138,,,,,,,,,
cFaQi4KWCZWXjZ10fStD,prolific_677586b643d924c6cb0440a2,2025-03-19T11:13:42.587Z,139,response,p,p,500,,1,+1.00$,"[0.5,0.3,0.7]",0.7
cFaQi4KWCZWXjZ10fStD,prolific_677586b643d924c6cb0440a2,2025-03-19T11:13:42.587Z,140,,,,1000,,,,,
cFaQi4KWCZWXjZ10fStD,prolific_677586b643d924c6cb0440a2,2025-03-19T11:13:42.587Z,141,,,,,1.22203299,,,,
cFaQi4KWCZWXjZ10fStD,prolific_677586b643d924c6cb0440a2,2025-03-19T11:13:42.587Z,141,,,,,,,,,
cFaQi4KWCZWXjZ10fStD,prolific_677586b643d924c6cb0440a2,2025-03-19T11:13:42.587Z,142,response,q,q,1613,,,0.00$,"[0.5,0.3,0.7]",0.5
cFaQi4KWCZWXjZ10fStD,prolific_677586b643d924c6cb0440a2,2025-03-19T11:13:42.587Z,143,,,,1000,,,,,
cFaQi4KWCZWXjZ10fStD,prolific_677586b643d924c6cb0440a2,2025-03-19T11:13:42.587Z,144,,,,,4.95281674,,,,
cFaQi4KWCZWXjZ10fStD,prolific_677586b643d924c6cb0440a2,2025-03-19T11:13:42.587Z,144,,,,,,,,,
cFaQi4KWCZWXjZ10fStD,prolific_677586b643d924c6cb0440a2,2025-03-19T11:13:42.587Z,145,response,t,t,477,,,0.00$,"[0.5,0.3,0.7]",0.3
cFaQi4KWCZWXjZ10fStD,prolific_677586b643d924c6cb0440a2,2025-03-19T11:13:42.587Z,146,,,,1000,,,,,
cFaQi4KWCZWXjZ10fStD,prolific_677586b643d924c6cb0440a2,2025-03-19T11:13:42.587Z,147,,,,,1.34170206,,,,
cFaQi4KWCZWXjZ10fStD,prolific_677586b643d924c6cb0440a2,2025-03-19T11:13:42.587Z,147,,,,,,,,,
cFaQi4KWCZWXjZ10fStD,prolific_677586b643d924c6cb0440a2,2025-03-19T11:13:42.587Z,148,,25,,5697,,,,,
cFaQi4KWCZWXjZ10fStD,prolific_677586b643d924c6cb0440a2,2025-03-19T11:13:42.587Z,149,,22,,2129,,,,,
cFaQi4KWCZWXjZ10fStD,prolific_677586b643d924c6cb0440a2,2025-03-19T11:13:42.587Z,150,,14,,5829,,,,,
cFaQi4KWCZWXjZ10fStD,prolific_677586b643d924c6cb0440a2,2025-03-19T11:13:42.587Z,151,,27,,2881,,,,,
cFaQi4KWCZWXjZ10fStD,prolific_677586b643d924c6cb0440a2,2025-03-19T11:13:42.587Z,152,,36,,3299,,,,,
cFaQi4KWCZWXjZ10fStD,prolific_677586b643d924c6cb0440a2,2025-03-19T11:13:42.587Z,153,,20,,4079,,,,,
cFaQi4KWCZWXjZ10fStD,prolific_677586b643d924c6cb0440a2,2025-03-19T11:13:42.587Z,154,,,,10000,,,,,
cFaQi4KWCZWXjZ10fStD,prolific_677586b643d924c6cb0440a2,2025-03-19T11:13:42.587Z,155,response,t,t,1362,,,0.00$,"[0.3,0.7,0.5]",0.7
cFaQi4KWCZWXjZ10fStD,prolific_677586b643d924c6cb0440a2,2025-03-19T11:13:42.587Z,156,,,,1000,,,,,
cFaQi4KWCZWXjZ10fStD,prolific_677586b643d924c6cb0440a2,2025-03-19T11:13:42.587Z,157,,,,,4.65645066,,,,
cFaQi4KWCZWXjZ10fStD,prolific_677586b643d924c6cb0440a2,2025-03-19T11:13:42.587Z,157,,,,,,,,,
cFaQi4KWCZWXjZ10fStD,prolific_677586b643d924c6cb0440a2,2025-03-19T11:13:42.587Z,158,response,t,t,605,,,0.00$,"[0.3,0.7,0.5]",0.7
cFaQi4KWCZWXjZ10fStD,prolific_677586b643d924c6cb0440a2,2025-03-19T11:13:42.587Z,159,,,,1000,,,,,
cFaQi4KWCZWXjZ10fStD,prolific_677586b643d924c6cb0440a2,2025-03-19T11:13:42.587Z,160,,,,,3.44448521,,,,
cFaQi4KWCZWXjZ10fStD,prolific_677586b643d924c6cb0440a2,2025-03-19T11:13:42.587Z,160,,,,,,,,,
cFaQi4KWCZWXjZ10fStD,prolific_677586b643d924c6cb0440a2,2025-03-19T11:13:42.587Z,161,response,t,t,588,,,0.00$,"[0.3,0.7,0.5]",0.7
cFaQi4KWCZWXjZ10fStD,prolific_677586b643d924c6cb0440a2,2025-03-19T11:13:42.587Z,162,,,,1000,,,,,
cFaQi4KWCZWXjZ10fStD,prolific_677586b643d924c6cb0440a2,2025-03-19T11:13:42.587Z,163,,,,,4.71725242,,,,
cFaQi4KWCZWXjZ10fStD,prolific_677586b643d924c6cb0440a2,2025-03-19T11:13:42.587Z,163,,,,,,,,,
cFaQi4KWCZWXjZ10fStD,prolific_677586b643d924c6cb0440a2,2025-03-19T11:13:42.587Z,164,response,t,t,592,,1,+1.00$,"[0.3,0.7,0.5]",0.7
cFaQi4KWCZWXjZ10fStD,prolific_677586b643d924c6cb0440a2,2025-03-19T11:13:42.587Z,165,,,,1000,,,,,
cFaQi4KWCZWXjZ10fStD,prolific_677586b643d924c6cb0440a2,2025-03-19T11:13:42.587Z,166,,,,,2.06856255,,,,
cFaQi4KWCZWXjZ10fStD,prolific_677586b643d924c6cb0440a2,2025-03-19T11:13:42.587Z,166,,,,,,,,,
cFaQi4KWCZWXjZ10fStD,prolific_677586b643d924c6cb0440a2,2025-03-19T11:13:42.587Z,167,response,t,t,454,,1,+1.00$,"[0.3,0.7,0.5]",0.7
cFaQi4KWCZWXjZ10fStD,prolific_677586b643d924c6cb0440a2,2025-03-19T11:13:42.587Z,168,,,,1000,,,,,
cFaQi4KWCZWXjZ10fStD,prolific_677586b643d924c6cb0440a2,2025-03-19T11:13:42.587Z,169,,,,,2.85765018,,,,
cFaQi4KWCZWXjZ10fStD,prolific_677586b643d924c6cb0440a2,2025-03-19T11:13:42.587Z,169,,,,,,,,,
cFaQi4KWCZWXjZ10fStD,prolific_677586b643d924c6cb0440a2,2025-03-19T11:13:42.587Z,170,response,t,t,1151,,1,+1.00$,"[0.3,0.7,0.5]",0.7
cFaQi4KWCZWXjZ10fStD,prolific_677586b643d924c6cb0440a2,2025-03-19T11:13:42.587Z,171,,,,1000,,,,,
cFaQi4KWCZWXjZ10fStD,prolific_677586b643d924c6cb0440a2,2025-03-19T11:13:42.587Z,172,,,,,1.24415086,,,,
cFaQi4KWCZWXjZ10fStD,prolific_677586b643d924c6cb0440a2,2025-03-19T11:13:42.587Z,172,,,,,,,,,
cFaQi4KWCZWXjZ10fStD,prolific_677586b643d924c6cb0440a2,2025-03-19T11:13:42.587Z,173,response,,p,2500,,,0.00$,"[0.3,0.7,0.5]",0.5
cFaQi4KWCZWXjZ10fStD,prolific_677586b643d924c6cb0440a2,2025-03-19T11:13:42.587Z,174,,,,1000,,,,,
cFaQi4KWCZWXjZ10fStD,prolific_677586b643d924c6cb0440a2,2025-03-19T11:13:42.587Z,175,,,,,3.3403206,,,,
cFaQi4KWCZWXjZ10fStD,prolific_677586b643d924c6cb0440a2,2025-03-19T11:13:42.587Z,175,,,,,,,,,
cFaQi4KWCZWXjZ10fStD,prolific_677586b643d924c6cb0440a2,2025-03-19T11:13:42.587Z,176,response,t,t,531,,1,+1.00$,"[0.3,0.7,0.5]",0.7
cFaQi4KWCZWXjZ10fStD,prolific_677586b643d924c6cb0440a2,2025-03-19T11:13:42.587Z,177,,,,1000,,,,,
cFaQi4KWCZWXjZ10fStD,prolific_677586b643d924c6cb0440a2,2025-03-19T11:13:42.587Z,178,,,,,3.91494587,,,,
cFaQi4KWCZWXjZ10fStD,prolific_677586b643d924c6cb0440a2,2025-03-19T11:13:42.587Z,178,,,,,,,,,
cFaQi4KWCZWXjZ10fStD,prolific_677586b643d924c6cb0440a2,2025-03-19T11:13:42.587Z,179,response,t,t,997,,,0.00$,"[0.3,0.7,0.5]",0.7
cFaQi4KWCZWXjZ10fStD,prolific_677586b643d924c6cb0440a2,2025-03-19T11:13:42.587Z,180,,,,1000,,,,,
cFaQi4KWCZWXjZ10fStD,prolific_677586b643d924c6cb0440a2,2025-03-19T11:13:42.587Z,181,,,,,1.01394596,,,,
cFaQi4KWCZWXjZ10fStD,prolific_677586b643d924c6cb0440a2,2025-03-19T11:13:42.587Z,181,,,,,,,,,
cFaQi4KWCZWXjZ10fStD,prolific_677586b643d924c6cb0440a2,2025-03-19T11:13:42.587Z,182,response,t,t,744,,1,+1.00$,"[0.3,0.7,0.5]",0.7
cFaQi4KWCZWXjZ10fStD,prolific_677586b643d924c6cb0440a2,2025-03-19T11:13:42.587Z,183,,,,1000,,,,,
cFaQi4KWCZWXjZ10fStD,prolific_677586b643d924c6cb0440a2,2025-03-19T11:13:42.587Z,184,,,,,1.22203299,,,,
cFaQi4KWCZWXjZ10fStD,prolific_677586b643d924c6cb0440a2,2025-03-19T11:13:42.587Z,184,,,,,,,,,
cFaQi4KWCZWXjZ10fStD,prolific_677586b643d924c6cb0440a2,2025-03-19T11:13:42.587Z,185,response,q,q,1346,,,0.00$,"[0.3,0.7,0.5]",0.3
cFaQi4KWCZWXjZ10fStD,prolific_677586b643d924c6cb0440a2,2025-03-19T11:13:42.587Z,186,,,,1000,,,,,
cFaQi4KWCZWXjZ10fStD,prolific_677586b643d924c6cb0440a2,2025-03-19T11:13:42.587Z,187,,,,,2.68921955,,,,
cFaQi4KWCZWXjZ10fStD,prolific_677586b643d924c6cb0440a2,2025-03-19T11:13:42.587Z,187,,,,,,,,,
cFaQi4KWCZWXjZ10fStD,prolific_677586b643d924c6cb0440a2,2025-03-19T11:13:42.587Z,188,response,q,q,407,,,0.00$,"[0.3,0.7,0.5]",0.3
cFaQi4KWCZWXjZ10fStD,prolific_677586b643d924c6cb0440a2,2025-03-19T11:13:42.587Z,189,,,,1000,,,,,
cFaQi4KWCZWXjZ10fStD,prolific_677586b643d924c6cb0440a2,2025-03-19T11:13:42.587Z,190,,,,,3.654616,,,,
cFaQi4KWCZWXjZ10fStD,prolific_677586b643d924c6cb0440a2,2025-03-19T11:13:42.587Z,190,,,,,,,,,
cFaQi4KWCZWXjZ10fStD,prolific_677586b643d924c6cb0440a2,2025-03-19T11:13:42.587Z,191,response,q,q,473,,1,+1.00$,"[0.3,0.7,0.5]",0.3
cFaQi4KWCZWXjZ10fStD,prolific_677586b643d924c6cb0440a2,2025-03-19T11:13:42.587Z,192,,,,1000,,,,,
cFaQi4KWCZWXjZ10fStD,prolific_677586b643d924c6cb0440a2,2025-03-19T11:13:42.587Z,193,,,,,3.97178517,,,,
cFaQi4KWCZWXjZ10fStD,prolific_677586b643d924c6cb0440a2,2025-03-19T11:13:42.587Z,193,,,,,,,,,
cFaQi4KWCZWXjZ10fStD,prolific_677586b643d924c6cb0440a2,2025-03-19T11:13:42.587Z,194,response,q,q,606,,,0.00$,"[0.3,0.7,0.5]",0.3
cFaQi4KWCZWXjZ10fStD,prolific_677586b643d924c6cb0440a2,2025-03-19T11:13:42.587Z,195,,,,1000,,,,,
cFaQi4KWCZWXjZ10fStD,prolific_677586b643d924c6cb0440a2,2025-03-19T11:13:42.587Z,196,,,,,2.11754048,,,,
cFaQi4KWCZWXjZ10fStD,prolific_677586b643d924c6cb0440a2,2025-03-19T11:13:42.587Z,196,,,,,,,,,
cFaQi4KWCZWXjZ10fStD,prolific_677586b643d924c6cb0440a2,2025-03-19T11:13:42.587Z,197,response,q,q,729,,1,+1.00$,"[0.3,0.7,0.5]",0.3
cFaQi4KWCZWXjZ10fStD,prolific_677586b643d924c6cb0440a2,2025-03-19T11:13:42.587Z,198,,,,1000,,,,,
cFaQi4KWCZWXjZ10fStD,prolific_677586b643d924c6cb0440a2,2025-03-19T11:13:42.587Z,199,,,,,1.87549279,,,,
cFaQi4KWCZWXjZ10fStD,prolific_677586b643d924c6cb0440a2,2025-03-19T11:13:42.587Z,199,,,,,,,,,
cFaQi4KWCZWXjZ10fStD,prolific_677586b643d924c6cb0440a2,2025-03-19T11:13:42.587Z,200,response,q,q,828,,,0.00$,"[0.3,0.7,0.5]",0.3
cFaQi4KWCZWXjZ10fStD,prolific_677586b643d924c6cb0440a2,2025-03-19T11:13:42.587Z,201,,,,1000,,,,,
cFaQi4KWCZWXjZ10fStD,prolific_677586b643d924c6cb0440a2,2025-03-19T11:13:42.587Z,202,,,,,4.71875611,,,,
cFaQi4KWCZWXjZ10fStD,prolific_677586b643d924c6cb0440a2,2025-03-19T11:13:42.587Z,202,,,,,,,,,
cFaQi4KWCZWXjZ10fStD,prolific_677586b643d924c6cb0440a2,2025-03-19T11:13:42.587Z,203,response,q,q,406,,,0.00$,"[0.3,0.7,0.5]",0.3
cFaQi4KWCZWXjZ10fStD,prolific_677586b643d924c6cb0440a2,2025-03-19T11:13:42.587Z,204,,,,1000,,,,,
cFaQi4KWCZWXjZ10fStD,prolific_677586b643d924c6cb0440a2,2025-03-19T11:13:42.587Z,205,,,,,1.34170206,,,,
cFaQi4KWCZWXjZ10fStD,prolific_677586b643d924c6cb0440a2,2025-03-19T11:13:42.587Z,205,,,,,,,,,
cFaQi4KWCZWXjZ10fStD,prolific_677586b643d924c6cb0440a2,2025-03-19T11:13:42.587Z,206,response,q,q,536,,,0.00$,"[0.3,0.7,0.5]",0.3
cFaQi4KWCZWXjZ10fStD,prolific_677586b643d924c6cb0440a2,2025-03-19T11:13:42.587Z,207,,,,1000,,,,,
cFaQi4KWCZWXjZ10fStD,prolific_677586b643d924c6cb0440a2,2025-03-19T11:13:42.587Z,208,,,,,4.77221725,,,,
cFaQi4KWCZWXjZ10fStD,prolific_677586b643d924c6cb0440a2,2025-03-19T11:13:42.587Z,208,,,,,,,,,
cFaQi4KWCZWXjZ10fStD,prolific_677586b643d924c6cb0440a2,2025-03-19T11:13:42.587Z,209,response,q,q,399,,,0.00$,"[0.3,0.7,0.5]",0.3
cFaQi4KWCZWXjZ10fStD,prolific_677586b643d924c6cb0440a2,2025-03-19T11:13:42.587Z,210,,,,1000,,,,,
cFaQi4KWCZWXjZ10fStD,prolific_677586b643d924c6cb0440a2,2025-03-19T11:13:42.587Z,211,,,,,1.87287147,,,,
cFaQi4KWCZWXjZ10fStD,prolific_677586b643d924c6cb0440a2,2025-03-19T11:13:42.587Z,211,,,,,,,,,
cFaQi4KWCZWXjZ10fStD,prolific_677586b643d924c6cb0440a2,2025-03-19T11:13:42.587Z,212,response,q,q,408,,,0.00$,"[0.3,0.7,0.5]",0.3
cFaQi4KWCZWXjZ10fStD,prolific_677586b643d924c6cb0440a2,2025-03-19T11:13:42.587Z,213,,,,1000,,,,,
cFaQi4KWCZWXjZ10fStD,prolific_677586b643d924c6cb0440a2,2025-03-19T11:13:42.587Z,214,,,,,4.50856021,,,,
cFaQi4KWCZWXjZ10fStD,prolific_677586b643d924c6cb0440a2,2025-03-19T11:13:42.587Z,214,,,,,,,,,
cFaQi4KWCZWXjZ10fStD,prolific_677586b643d924c6cb0440a2,2025-03-19T11:13:42.587Z,215,response,p,p,594,,,0.00$,"[0.3,0.7,0.5]",0.5
cFaQi4KWCZWXjZ10fStD,prolific_677586b643d924c6cb0440a2,2025-03-19T11:13:42.587Z,216,,,,1000,,,,,
cFaQi4KWCZWXjZ10fStD,prolific_677586b643d924c6cb0440a2,2025-03-19T11:13:42.587Z,217,,,,,4.75169756,,,,
cFaQi4KWCZWXjZ10fStD,prolific_677586b643d924c6cb0440a2,2025-03-19T11:13:42.587Z,217,,,,,,,,,
cFaQi4KWCZWXjZ10fStD,prolific_677586b643d924c6cb0440a2,2025-03-19T11:13:42.587Z,218,response,p,p,393,,1,+1.00$,"[0.3,0.7,0.5]",0.5
cFaQi4KWCZWXjZ10fStD,prolific_677586b643d924c6cb0440a2,2025-03-19T11:13:42.587Z,219,,,,1000,,,,,
cFaQi4KWCZWXjZ10fStD,prolific_677586b643d924c6cb0440a2,2025-03-19T11:13:42.587Z,220,,,,,3.93897413,,,,
cFaQi4KWCZWXjZ10fStD,prolific_677586b643d924c6cb0440a2,2025-03-19T11:13:42.587Z,220,,,,,,,,,
cFaQi4KWCZWXjZ10fStD,prolific_677586b643d924c6cb0440a2,2025-03-19T11:13:42.587Z,221,response,p,p,348,,1,+1.00$,"[0.3,0.7,0.5]",0.5
cFaQi4KWCZWXjZ10fStD,prolific_677586b643d924c6cb0440a2,2025-03-19T11:13:42.587Z,222,,,,1000,,,,,
cFaQi4KWCZWXjZ10fStD,prolific_677586b643d924c6cb0440a2,2025-03-19T11:13:42.587Z,223,,,,,3.99800967,,,,
cFaQi4KWCZWXjZ10fStD,prolific_677586b643d924c6cb0440a2,2025-03-19T11:13:42.587Z,223,,,,,,,,,
cFaQi4KWCZWXjZ10fStD,prolific_677586b643d924c6cb0440a2,2025-03-19T11:13:42.587Z,224,response,p,p,364,,,0.00$,"[0.3,0.7,0.5]",0.5
cFaQi4KWCZWXjZ10fStD,prolific_677586b643d924c6cb0440a2,2025-03-19T11:13:42.587Z,225,,,,1000,,,,,
cFaQi4KWCZWXjZ10fStD,prolific_677586b643d924c6cb0440a2,2025-03-19T11:13:42.587Z,226,,,,,2.5956608,,,,
cFaQi4KWCZWXjZ10fStD,prolific_677586b643d924c6cb0440a2,2025-03-19T11:13:42.587Z,226,,,,,,,,,
cFaQi4KWCZWXjZ10fStD,prolific_677586b643d924c6cb0440a2,2025-03-19T11:13:42.587Z,227,response,p,p,326,,1,+1.00$,"[0.3,0.7,0.5]",0.5
cFaQi4KWCZWXjZ10fStD,prolific_677586b643d924c6cb0440a2,2025-03-19T11:13:42.587Z,228,,,,1000,,,,,
cFaQi4KWCZWXjZ10fStD,prolific_677586b643d924c6cb0440a2,2025-03-19T11:13:42.587Z,229,,,,,4.42389611,,,,
cFaQi4KWCZWXjZ10fStD,prolific_677586b643d924c6cb0440a2,2025-03-19T11:13:42.587Z,229,,,,,,,,,
cFaQi4KWCZWXjZ10fStD,prolific_677586b643d924c6cb0440a2,2025-03-19T11:13:42.587Z,230,response,p,p,1063,,,0.00$,"[0.3,0.7,0.5]",0.5
cFaQi4KWCZWXjZ10fStD,prolific_677586b643d924c6cb0440a2,2025-03-19T11:13:42.587Z,231,,,,1000,,,,,
cFaQi4KWCZWXjZ10fStD,prolific_677586b643d924c6cb0440a2,2025-03-19T11:13:42.587Z,232,,,,,4.93912462,,,,
cFaQi4KWCZWXjZ10fStD,prolific_677586b643d924c6cb0440a2,2025-03-19T11:13:42.587Z,232,,,,,,,,,
cFaQi4KWCZWXjZ10fStD,prolific_677586b643d924c6cb0440a2,2025-03-19T11:13:42.587Z,233,response,p,p,393,,,0.00$,"[0.3,0.7,0.5]",0.5
cFaQi4KWCZWXjZ10fStD,prolific_677586b643d924c6cb0440a2,2025-03-19T11:13:42.587Z,234,,,,1000,,,,,
cFaQi4KWCZWXjZ10fStD,prolific_677586b643d924c6cb0440a2,2025-03-19T11:13:42.587Z,235,,,,,1.8988998,,,,
cFaQi4KWCZWXjZ10fStD,prolific_677586b643d924c6cb0440a2,2025-03-19T11:13:42.587Z,235,,,,,,,,,
cFaQi4KWCZWXjZ10fStD,prolific_677586b643d924c6cb0440a2,2025-03-19T11:13:42.587Z,236,response,p,p,404,,,0.00$,"[0.3,0.7,0.5]",0.5
cFaQi4KWCZWXjZ10fStD,prolific_677586b643d924c6cb0440a2,2025-03-19T11:13:42.587Z,237,,,,1000,,,,,
cFaQi4KWCZWXjZ10fStD,prolific_677586b643d924c6cb0440a2,2025-03-19T11:13:42.587Z,238,,,,,3.53667484,,,,
cFaQi4KWCZWXjZ10fStD,prolific_677586b643d924c6cb0440a2,2025-03-19T11:13:42.587Z,238,,,,,,,,,
cFaQi4KWCZWXjZ10fStD,prolific_677586b643d924c6cb0440a2,2025-03-19T11:13:42.587Z,239,response,p,p,421,,1,+1.00$,"[0.3,0.7,0.5]",0.5
cFaQi4KWCZWXjZ10fStD,prolific_677586b643d924c6cb0440a2,2025-03-19T11:13:42.587Z,240,,,,1000,,,,,
cFaQi4KWCZWXjZ10fStD,prolific_677586b643d924c6cb0440a2,2025-03-19T11:13:42.587Z,241,,,,,1.30162451,,,,
cFaQi4KWCZWXjZ10fStD,prolific_677586b643d924c6cb0440a2,2025-03-19T11:13:42.587Z,241,,,,,,,,,
cFaQi4KWCZWXjZ10fStD,prolific_677586b643d924c6cb0440a2,2025-03-19T11:13:42.587Z,242,response,p,p,1259,,1,+1.00$,"[0.3,0.7,0.5]",0.5
cFaQi4KWCZWXjZ10fStD,prolific_677586b643d924c6cb0440a2,2025-03-19T11:13:42.587Z,243,,,,1000,,,,,
cFaQi4KWCZWXjZ10fStD,prolific_677586b643d924c6cb0440a2,2025-03-19T11:13:42.587Z,244,,,,,4.95281674,,,,
cFaQi4KWCZWXjZ10fStD,prolific_677586b643d924c6cb0440a2,2025-03-19T11:13:42.587Z,244,,,,,,,,,
cFaQi4KWCZWXjZ10fStD,prolific_677586b643d924c6cb0440a2,2025-03-19T11:13:42.587Z,245,response,p,p,436,,,0.00$,"[0.3,0.7,0.5]",0.5
cFaQi4KWCZWXjZ10fStD,prolific_677586b643d924c6cb0440a2,2025-03-19T11:13:42.587Z,246,,,,1000,,,,,
cFaQi4KWCZWXjZ10fStD,prolific_677586b643d924c6cb0440a2,2025-03-19T11:13:42.587Z,247,,,,,3.68446081,,,,
cFaQi4KWCZWXjZ10fStD,prolific_677586b643d924c6cb0440a2,2025-03-19T11:13:42.587Z,247,,,,,,,,,
cFaQi4KWCZWXjZ10fStD,prolific_677586b643d924c6cb0440a2,2025-03-19T11:13:42.587Z,248,response,p,p,313,,,0.00$,"[0.3,0.7,0.5]",0.5
cFaQi4KWCZWXjZ10fStD,prolific_677586b643d924c6cb0440a2,2025-03-19T11:13:42.587Z,249,,,,1000,,,,,
cFaQi4KWCZWXjZ10fStD,prolific_677586b643d924c6cb0440a2,2025-03-19T11:13:42.587Z,250,,,,,1.97473574,,,,
cFaQi4KWCZWXjZ10fStD,prolific_677586b643d924c6cb0440a2,2025-03-19T11:13:42.587Z,250,,,,,,,,,
cFaQi4KWCZWXjZ10fStD,prolific_677586b643d924c6cb0440a2,2025-03-19T11:13:42.587Z,251,response,p,p,542,,,0.00$,"[0.3,0.7,0.5]",0.5
cFaQi4KWCZWXjZ10fStD,prolific_677586b643d924c6cb0440a2,2025-03-19T11:13:42.587Z,252,,,,1000,,,,,
cFaQi4KWCZWXjZ10fStD,prolific_677586b643d924c6cb0440a2,2025-03-19T11:13:42.587Z,253,,,,,4.50775926,,,,
cFaQi4KWCZWXjZ10fStD,prolific_677586b643d924c6cb0440a2,2025-03-19T11:13:42.587Z,253,,,,,,,,,
cFaQi4KWCZWXjZ10fStD,prolific_677586b643d924c6cb0440a2,2025-03-19T11:13:42.587Z,254,response,p,p,458,,1,+1.00$,"[0.3,0.7,0.5]",0.5
cFaQi4KWCZWXjZ10fStD,prolific_677586b643d924c6cb0440a2,2025-03-19T11:13:42.587Z,255,,,,1000,,,,,
cFaQi4KWCZWXjZ10fStD,prolific_677586b643d924c6cb0440a2,2025-03-19T11:13:42.587Z,256,,,,,3.17386958,,,,
cFaQi4KWCZWXjZ10fStD,prolific_677586b643d924c6cb0440a2,2025-03-19T11:13:42.587Z,256,,,,,,,,,
cFaQi4KWCZWXjZ10fStD,prolific_677586b643d924c6cb0440a2,2025-03-19T11:13:42.587Z,257,response,p,p,336,,1,+1.00$,"[0.3,0.7,0.5]",0.5
cFaQi4KWCZWXjZ10fStD,prolific_677586b643d924c6cb0440a2,2025-03-19T11:13:42.587Z,258,,,,1000,,,,,
cFaQi4KWCZWXjZ10fStD,prolific_677586b643d924c6cb0440a2,2025-03-19T11:13:42.587Z,259,,,,,4.44339236,,,,
cFaQi4KWCZWXjZ10fStD,prolific_677586b643d924c6cb0440a2,2025-03-19T11:13:42.587Z,259,,,,,,,,,
cFaQi4KWCZWXjZ10fStD,prolific_677586b643d924c6cb0440a2,2025-03-19T11:13:42.587Z,260,response,p,p,345,,,0.00$,"[0.3,0.7,0.5]",0.5
cFaQi4KWCZWXjZ10fStD,prolific_677586b643d924c6cb0440a2,2025-03-19T11:13:42.587Z,261,,,,1000,,,,,
cFaQi4KWCZWXjZ10fStD,prolific_677586b643d924c6cb0440a2,2025-03-19T11:13:42.587Z,262,,,,,2.64379115,,,,
cFaQi4KWCZWXjZ10fStD,prolific_677586b643d924c6cb0440a2,2025-03-19T11:13:42.587Z,262,,,,,,,,,
cFaQi4KWCZWXjZ10fStD,prolific_677586b643d924c6cb0440a2,2025-03-19T11:13:42.587Z,263,response,p,p,566,,1,+1.00$,"[0.3,0.7,0.5]",0.5
cFaQi4KWCZWXjZ10fStD,prolific_677586b643d924c6cb0440a2,2025-03-19T11:13:42.587Z,264,,,,1000,,,,,
cFaQi4KWCZWXjZ10fStD,prolific_677586b643d924c6cb0440a2,2025-03-19T11:13:42.587Z,265,,,,,2.25875576,,,,
cFaQi4KWCZWXjZ10fStD,prolific_677586b643d924c6cb0440a2,2025-03-19T11:13:42.587Z,265,,,,,,,,,
cFaQi4KWCZWXjZ10fStD,prolific_677586b643d924c6cb0440a2,2025-03-19T11:13:42.587Z,266,response,p,p,755,,1,+1.00$,"[0.3,0.7,0.5]",0.5
cFaQi4KWCZWXjZ10fStD,prolific_677586b643d924c6cb0440a2,2025-03-19T11:13:42.587Z,267,,,,1000,,,,,
cFaQi4KWCZWXjZ10fStD,prolific_677586b643d924c6cb0440a2,2025-03-19T11:13:42.587Z,268,,,,,4.12585882,,,,
cFaQi4KWCZWXjZ10fStD,prolific_677586b643d924c6cb0440a2,2025-03-19T11:13:42.587Z,268,,,,,,,,,
cFaQi4KWCZWXjZ10fStD,prolific_677586b643d924c6cb0440a2,2025-03-19T11:13:42.587Z,269,response,p,p,350,,1,+1.00$,"[0.3,0.7,0.5]",0.5
cFaQi4KWCZWXjZ10fStD,prolific_677586b643d924c6cb0440a2,2025-03-19T11:13:42.587Z,270,,,,1000,,,,,
cFaQi4KWCZWXjZ10fStD,prolific_677586b643d924c6cb0440a2,2025-03-19T11:13:42.587Z,271,,,,,1.72268074,,,,
cFaQi4KWCZWXjZ10fStD,prolific_677586b643d924c6cb0440a2,2025-03-19T11:13:42.587Z,271,,,,,,,,,
cFaQi4KWCZWXjZ10fStD,prolific_677586b643d924c6cb0440a2,2025-03-19T11:13:42.587Z,272,response,p,p,328,,1,+1.00$,"[0.3,0.7,0.5]",0.5
cFaQi4KWCZWXjZ10fStD,prolific_677586b643d924c6cb0440a2,2025-03-19T11:13:42.587Z,273,,,,1000,,,,,
cFaQi4KWCZWXjZ10fStD,prolific_677586b643d924c6cb0440a2,2025-03-19T11:13:42.587Z,274,,,,,3.88535747,,,,
cFaQi4KWCZWXjZ10fStD,prolific_677586b643d924c6cb0440a2,2025-03-19T11:13:42.587Z,274,,,,,,,,,
cFaQi4KWCZWXjZ10fStD,prolific_677586b643d924c6cb0440a2,2025-03-19T11:13:42.587Z,275,response,p,p,390,,1,+1.00$,"[0.3,0.7,0.5]",0.5
cFaQi4KWCZWXjZ10fStD,prolific_677586b643d924c6cb0440a2,2025-03-19T11:13:42.587Z,276,,,,1000,,,,,
cFaQi4KWCZWXjZ10fStD,prolific_677586b643d924c6cb0440a2,2025-03-19T11:13:42.587Z,277,,,,,4.58203134,,,,
cFaQi4KWCZWXjZ10fStD,prolific_677586b643d924c6cb0440a2,2025-03-19T11:13:42.587Z,277,,,,,,,,,
cFaQi4KWCZWXjZ10fStD,prolific_677586b643d924c6cb0440a2,2025-03-19T11:13:42.587Z,278,response,p,p,1815,,,0.00$,"[0.3,0.7,0.5]",0.5
cFaQi4KWCZWXjZ10fStD,prolific_677586b643d924c6cb0440a2,2025-03-19T11:13:42.587Z,279,,,,1000,,,,,
cFaQi4KWCZWXjZ10fStD,prolific_677586b643d924c6cb0440a2,2025-03-19T11:13:42.587Z,280,,,,,1.24078153,,,,
cFaQi4KWCZWXjZ10fStD,prolific_677586b643d924c6cb0440a2,2025-03-19T11:13:42.587Z,280,,,,,,,,,
cFaQi4KWCZWXjZ10fStD,prolific_677586b643d924c6cb0440a2,2025-03-19T11:13:42.587Z,281,,20,,4370,,,,,
cFaQi4KWCZWXjZ10fStD,prolific_677586b643d924c6cb0440a2,2025-03-19T11:13:42.587Z,282,,50,,3631,,,,,
cFaQi4KWCZWXjZ10fStD,prolific_677586b643d924c6cb0440a2,2025-03-19T11:13:42.587Z,283,,50,,2497,,,,,
cFaQi4KWCZWXjZ10fStD,prolific_677586b643d924c6cb0440a2,2025-03-19T11:13:42.587Z,284,,50,,1814,,,,,
cFaQi4KWCZWXjZ10fStD,prolific_677586b643d924c6cb0440a2,2025-03-19T11:13:42.587Z,285,,63,,2829,,,,,
cFaQi4KWCZWXjZ10fStD,prolific_677586b643d924c6cb0440a2,2025-03-19T11:13:42.587Z,286,,50,,1700,,,,,
cFaQi4KWCZWXjZ10fStD,prolific_677586b643d924c6cb0440a2,2025-03-19T11:13:42.587Z,287,,[object Object],,81868,,,,,
cFaQi4KWCZWXjZ10fStD,prolific_677586b643d924c6cb0440a2,2025-03-19T11:13:42.587Z,288,,,,5000,,,,,
ESYO9e4s2dCAxS7D6b6G,prolific_6737d40649c708c7e5c7360c,2025-03-19T11:19:42.039Z,0,,,,9089,,,,,
ESYO9e4s2dCAxS7D6b6G,prolific_6737d40649c708c7e5c7360c,2025-03-19T11:19:42.039Z,1,,,,,,,,,
ESYO9e4s2dCAxS7D6b6G,prolific_6737d40649c708c7e5c7360c,2025-03-19T11:19:42.039Z,2,,enter,,14517,,,,,
ESYO9e4s2dCAxS7D6b6G,prolific_6737d40649c708c7e5c7360c,2025-03-19T11:19:42.039Z,3,,enter,,19023,,,,,
ESYO9e4s2dCAxS7D6b6G,prolific_6737d40649c708c7e5c7360c,2025-03-19T11:19:42.039Z,4,,enter,,7216,,,,,
ESYO9e4s2dCAxS7D6b6G,prolific_6737d40649c708c7e5c7360c,2025-03-19T11:19:42.039Z,5,,,,10000,,,,,
ESYO9e4s2dCAxS7D6b6G,prolific_6737d40649c708c7e5c7360c,2025-03-19T11:19:42.039Z,6,response,p,p,1788,,,0.00$,"[0.5,0.7,0.3]",0.3
ESYO9e4s2dCAxS7D6b6G,prolific_6737d40649c708c7e5c7360c,2025-03-19T11:19:42.039Z,7,,,,1000,,,,,
ESYO9e4s2dCAxS7D6b6G,prolific_6737d40649c708c7e5c7360c,2025-03-19T11:19:42.039Z,8,,,,,3.3403206,,,,
ESYO9e4s2dCAxS7D6b6G,prolific_6737d40649c708c7e5c7360c,2025-03-19T11:19:42.039Z,8,,,,,,,,,
ESYO9e4s2dCAxS7D6b6G,prolific_6737d40649c708c7e5c7360c,2025-03-19T11:19:42.039Z,9,response,q,q,2032,,1,+1.00$,"[0.5,0.7,0.3]",0.5
ESYO9e4s2dCAxS7D6b6G,prolific_6737d40649c708c7e5c7360c,2025-03-19T11:19:42.039Z,10,,,,1000,,,,,
ESYO9e4s2dCAxS7D6b6G,prolific_6737d40649c708c7e5c7360c,2025-03-19T11:19:42.039Z,11,,,,,4.44339236,,,,
ESYO9e4s2dCAxS7D6b6G,prolific_6737d40649c708c7e5c7360c,2025-03-19T11:19:42.039Z,11,,,,,,,,,
ESYO9e4s2dCAxS7D6b6G,prolific_6737d40649c708c7e5c7360c,2025-03-19T11:19:42.039Z,12,response,t,t,1771,,1,+1.00$,"[0.5,0.7,0.3]",0.7
ESYO9e4s2dCAxS7D6b6G,prolific_6737d40649c708c7e5c7360c,2025-03-19T11:19:42.039Z,13,,,,1000,,,,,
ESYO9e4s2dCAxS7D6b6G,prolific_6737d40649c708c7e5c7360c,2025-03-19T11:19:42.039Z,14,,,,,1.30162451,,,,
ESYO9e4s2dCAxS7D6b6G,prolific_6737d40649c708c7e5c7360c,2025-03-19T11:19:42.039Z,14,,,,,,,,,
ESYO9e4s2dCAxS7D6b6G,prolific_6737d40649c708c7e5c7360c,2025-03-19T11:19:42.039Z,15,,56,,9701,,,,,
ESYO9e4s2dCAxS7D6b6G,prolific_6737d40649c708c7e5c7360c,2025-03-19T11:19:42.039Z,16,,39,,3738,,,,,
ESYO9e4s2dCAxS7D6b6G,prolific_6737d40649c708c7e5c7360c,2025-03-19T11:19:42.039Z,17,,61,,2848,,,,,
ESYO9e4s2dCAxS7D6b6G,prolific_6737d40649c708c7e5c7360c,2025-03-19T11:19:42.039Z,18,,34,,2213,,,,,
ESYO9e4s2dCAxS7D6b6G,prolific_6737d40649c708c7e5c7360c,2025-03-19T11:19:42.039Z,19,,21,,3758,,,,,
ESYO9e4s2dCAxS7D6b6G,prolific_6737d40649c708c7e5c7360c,2025-03-19T11:19:42.039Z,20,,34,,2446,,,,,
ESYO9e4s2dCAxS7D6b6G,prolific_6737d40649c708c7e5c7360c,2025-03-19T11:19:42.039Z,21,,,,10000,,,,,
ESYO9e4s2dCAxS7D6b6G,prolific_6737d40649c708c7e5c7360c,2025-03-19T11:19:42.039Z,22,response,t,t,1790,,1,+1.00$,"[0.5,0.7,0.3]",0.7
ESYO9e4s2dCAxS7D6b6G,prolific_6737d40649c708c7e5c7360c,2025-03-19T11:19:42.039Z,23,,,,1000,,,,,
ESYO9e4s2dCAxS7D6b6G,prolific_6737d40649c708c7e5c7360c,2025-03-19T11:19:42.039Z,24,,,,,2.87804185,,,,
ESYO9e4s2dCAxS7D6b6G,prolific_6737d40649c708c7e5c7360c,2025-03-19T11:19:42.039Z,24,,,,,,,,,
ESYO9e4s2dCAxS7D6b6G,prolific_6737d40649c708c7e5c7360c,2025-03-19T11:19:42.039Z,25,response,t,t,1449,,,0.00$,"[0.5,0.7,0.3]",0.7
ESYO9e4s2dCAxS7D6b6G,prolific_6737d40649c708c7e5c7360c,2025-03-19T11:19:42.039Z,26,,,,1000,,,,,
ESYO9e4s2dCAxS7D6b6G,prolific_6737d40649c708c7e5c7360c,2025-03-19T11:19:42.039Z,27,,,,,4.71875611,,,,
ESYO9e4s2dCAxS7D6b6G,prolific_6737d40649c708c7e5c7360c,2025-03-19T11:19:42.039Z,27,,,,,,,,,
ESYO9e4s2dCAxS7D6b6G,prolific_6737d40649c708c7e5c7360c,2025-03-19T11:19:42.039Z,28,response,p,p,1242,,,0.00$,"[0.5,0.7,0.3]",0.3
ESYO9e4s2dCAxS7D6b6G,prolific_6737d40649c708c7e5c7360c,2025-03-19T11:19:42.039Z,29,,,,1000,,,,,
ESYO9e4s2dCAxS7D6b6G,prolific_6737d40649c708c7e5c7360c,2025-03-19T11:19:42.039Z,30,,,,,1.34170206,,,,
ESYO9e4s2dCAxS7D6b6G,prolific_6737d40649c708c7e5c7360c,2025-03-19T11:19:42.039Z,30,,,,,,,,,
ESYO9e4s2dCAxS7D6b6G,prolific_6737d40649c708c7e5c7360c,2025-03-19T11:19:42.039Z,31,response,q,q,804,,1,+1.00$,"[0.5,0.7,0.3]",0.5
ESYO9e4s2dCAxS7D6b6G,prolific_6737d40649c708c7e5c7360c,2025-03-19T11:19:42.039Z,32,,,,1000,,,,,
ESYO9e4s2dCAxS7D6b6G,prolific_6737d40649c708c7e5c7360c,2025-03-19T11:19:42.039Z,33,,,,,3.97178517,,,,
ESYO9e4s2dCAxS7D6b6G,prolific_6737d40649c708c7e5c7360c,2025-03-19T11:19:42.039Z,33,,,,,,,,,
ESYO9e4s2dCAxS7D6b6G,prolific_6737d40649c708c7e5c7360c,2025-03-19T11:19:42.039Z,34,response,q,q,800,,1,+1.00$,"[0.5,0.7,0.3]",0.5
ESYO9e4s2dCAxS7D6b6G,prolific_6737d40649c708c7e5c7360c,2025-03-19T11:19:42.039Z,35,,,,1000,,,,,
ESYO9e4s2dCAxS7D6b6G,prolific_6737d40649c708c7e5c7360c,2025-03-19T11:19:42.039Z,36,,,,,1.87287147,,,,
ESYO9e4s2dCAxS7D6b6G,prolific_6737d40649c708c7e5c7360c,2025-03-19T11:19:42.039Z,36,,,,,,,,,
ESYO9e4s2dCAxS7D6b6G,prolific_6737d40649c708c7e5c7360c,2025-03-19T11:19:42.039Z,37,response,t,t,898,,,0.00$,"[0.5,0.7,0.3]",0.7
ESYO9e4s2dCAxS7D6b6G,prolific_6737d40649c708c7e5c7360c,2025-03-19T11:19:42.039Z,38,,,,1000,,,,,
ESYO9e4s2dCAxS7D6b6G,prolific_6737d40649c708c7e5c7360c,2025-03-19T11:19:42.039Z,39,,,,,2.11754048,,,,
ESYO9e4s2dCAxS7D6b6G,prolific_6737d40649c708c7e5c7360c,2025-03-19T11:19:42.039Z,39,,,,,,,,,
ESYO9e4s2dCAxS7D6b6G,prolific_6737d40649c708c7e5c7360c,2025-03-19T11:19:42.039Z,40,response,p,p,795,,,0.00$,"[0.5,0.7,0.3]",0.3
ESYO9e4s2dCAxS7D6b6G,prolific_6737d40649c708c7e5c7360c,2025-03-19T11:19:42.039Z,41,,,,1000,,,,,
ESYO9e4s2dCAxS7D6b6G,prolific_6737d40649c708c7e5c7360c,2025-03-19T11:19:42.039Z,42,,,,,2.06856255,,,,
ESYO9e4s2dCAxS7D6b6G,prolific_6737d40649c708c7e5c7360c,2025-03-19T11:19:42.039Z,42,,,,,,,,,
ESYO9e4s2dCAxS7D6b6G,prolific_6737d40649c708c7e5c7360c,2025-03-19T11:19:42.039Z,43,response,q,q,753,,1,+1.00$,"[0.5,0.7,0.3]",0.5
ESYO9e4s2dCAxS7D6b6G,prolific_6737d40649c708c7e5c7360c,2025-03-19T11:19:42.039Z,44,,,,1000,,,,,
ESYO9e4s2dCAxS7D6b6G,prolific_6737d40649c708c7e5c7360c,2025-03-19T11:19:42.039Z,45,,,,,2.5956608,,,,
ESYO9e4s2dCAxS7D6b6G,prolific_6737d40649c708c7e5c7360c,2025-03-19T11:19:42.039Z,45,,,,,,,,,
ESYO9e4s2dCAxS7D6b6G,prolific_6737d40649c708c7e5c7360c,2025-03-19T11:19:42.039Z,46,response,q,q,704,,,0.00$,"[0.5,0.7,0.3]",0.5
ESYO9e4s2dCAxS7D6b6G,prolific_6737d40649c708c7e5c7360c,2025-03-19T11:19:42.039Z,47,,,,1000,,,,,
ESYO9e4s2dCAxS7D6b6G,prolific_6737d40649c708c7e5c7360c,2025-03-19T11:19:42.039Z,48,,,,,3.3403206,,,,
ESYO9e4s2dCAxS7D6b6G,prolific_6737d40649c708c7e5c7360c,2025-03-19T11:19:42.039Z,48,,,,,,,,,
ESYO9e4s2dCAxS7D6b6G,prolific_6737d40649c708c7e5c7360c,2025-03-19T11:19:42.039Z,49,response,t,t,831,,1,+1.00$,"[0.5,0.7,0.3]",0.7
ESYO9e4s2dCAxS7D6b6G,prolific_6737d40649c708c7e5c7360c,2025-03-19T11:19:42.039Z,50,,,,1000,,,,,
ESYO9e4s2dCAxS7D6b6G,prolific_6737d40649c708c7e5c7360c,2025-03-19T11:19:42.039Z,51,,,,,3.68446081,,,,
ESYO9e4s2dCAxS7D6b6G,prolific_6737d40649c708c7e5c7360c,2025-03-19T11:19:42.039Z,51,,,,,,,,,
ESYO9e4s2dCAxS7D6b6G,prolific_6737d40649c708c7e5c7360c,2025-03-19T11:19:42.039Z,52,response,p,p,719,,,0.00$,"[0.5,0.7,0.3]",0.3
ESYO9e4s2dCAxS7D6b6G,prolific_6737d40649c708c7e5c7360c,2025-03-19T11:19:42.039Z,53,,,,1000,,,,,
ESYO9e4s2dCAxS7D6b6G,prolific_6737d40649c708c7e5c7360c,2025-03-19T11:19:42.039Z,54,,,,,1.72268074,,,,
ESYO9e4s2dCAxS7D6b6G,prolific_6737d40649c708c7e5c7360c,2025-03-19T11:19:42.039Z,54,,,,,,,,,
ESYO9e4s2dCAxS7D6b6G,prolific_6737d40649c708c7e5c7360c,2025-03-19T11:19:42.039Z,55,response,t,t,492,,1,+1.00$,"[0.5,0.7,0.3]",0.7
ESYO9e4s2dCAxS7D6b6G,prolific_6737d40649c708c7e5c7360c,2025-03-19T11:19:42.039Z,56,,,,1000,,,,,
ESYO9e4s2dCAxS7D6b6G,prolific_6737d40649c708c7e5c7360c,2025-03-19T11:19:42.039Z,57,,,,,2.64379115,,,,
ESYO9e4s2dCAxS7D6b6G,prolific_6737d40649c708c7e5c7360c,2025-03-19T11:19:42.039Z,57,,,,,,,,,
ESYO9e4s2dCAxS7D6b6G,prolific_6737d40649c708c7e5c7360c,2025-03-19T11:19:42.039Z,58,response,q,q,411,,1,+1.00$,"[0.5,0.7,0.3]",0.5
ESYO9e4s2dCAxS7D6b6G,prolific_6737d40649c708c7e5c7360c,2025-03-19T11:19:42.039Z,59,,,,1000,,,,,
ESYO9e4s2dCAxS7D6b6G,prolific_6737d40649c708c7e5c7360c,2025-03-19T11:19:42.039Z,60,,,,,4.12585882,,,,
ESYO9e4s2dCAxS7D6b6G,prolific_6737d40649c708c7e5c7360c,2025-03-19T11:19:42.039Z,60,,,,,,,,,
ESYO9e4s2dCAxS7D6b6G,prolific_6737d40649c708c7e5c7360c,2025-03-19T11:19:42.039Z,61,response,t,t,785,,,0.00$,"[0.5,0.7,0.3]",0.7
ESYO9e4s2dCAxS7D6b6G,prolific_6737d40649c708c7e5c7360c,2025-03-19T11:19:42.039Z,62,,,,1000,,,,,
ESYO9e4s2dCAxS7D6b6G,prolific_6737d40649c708c7e5c7360c,2025-03-19T11:19:42.039Z,63,,,,,4.95281674,,,,
ESYO9e4s2dCAxS7D6b6G,prolific_6737d40649c708c7e5c7360c,2025-03-19T11:19:42.039Z,63,,,,,,,,,
ESYO9e4s2dCAxS7D6b6G,prolific_6737d40649c708c7e5c7360c,2025-03-19T11:19:42.039Z,64,response,q,q,605,,1,+1.00$,"[0.5,0.7,0.3]",0.5
ESYO9e4s2dCAxS7D6b6G,prolific_6737d40649c708c7e5c7360c,2025-03-19T11:19:42.039Z,65,,,,1000,,,,,
ESYO9e4s2dCAxS7D6b6G,prolific_6737d40649c708c7e5c7360c,2025-03-19T11:19:42.039Z,66,,,,,3.53667484,,,,
ESYO9e4s2dCAxS7D6b6G,prolific_6737d40649c708c7e5c7360c,2025-03-19T11:19:42.039Z,66,,,,,,,,,
ESYO9e4s2dCAxS7D6b6G,prolific_6737d40649c708c7e5c7360c,2025-03-19T11:19:42.039Z,67,response,q,q,700,,1,+1.00$,"[0.5,0.7,0.3]",0.5
ESYO9e4s2dCAxS7D6b6G,prolific_6737d40649c708c7e5c7360c,2025-03-19T11:19:42.039Z,68,,,,1000,,,,,
ESYO9e4s2dCAxS7D6b6G,prolific_6737d40649c708c7e5c7360c,2025-03-19T11:19:42.039Z,69,,,,,4.75169756,,,,
ESYO9e4s2dCAxS7D6b6G,prolific_6737d40649c708c7e5c7360c,2025-03-19T11:19:42.039Z,69,,,,,,,,,
ESYO9e4s2dCAxS7D6b6G,prolific_6737d40649c708c7e5c7360c,2025-03-19T11:19:42.039Z,70,response,q,q,625,,,0.00$,"[0.5,0.7,0.3]",0.5
ESYO9e4s2dCAxS7D6b6G,prolific_6737d40649c708c7e5c7360c,2025-03-19T11:19:42.039Z,71,,,,1000,,,,,
ESYO9e4s2dCAxS7D6b6G,prolific_6737d40649c708c7e5c7360c,2025-03-19T11:19:42.039Z,72,,,,,3.88535747,,,,
ESYO9e4s2dCAxS7D6b6G,prolific_6737d40649c708c7e5c7360c,2025-03-19T11:19:42.039Z,72,,,,,,,,,
ESYO9e4s2dCAxS7D6b6G,prolific_6737d40649c708c7e5c7360c,2025-03-19T11:19:42.039Z,73,response,q,q,535,,,0.00$,"[0.5,0.7,0.3]",0.5
ESYO9e4s2dCAxS7D6b6G,prolific_6737d40649c708c7e5c7360c,2025-03-19T11:19:42.039Z,74,,,,1000,,,,,
ESYO9e4s2dCAxS7D6b6G,prolific_6737d40649c708c7e5c7360c,2025-03-19T11:19:42.039Z,75,,,,,4.50775926,,,,
ESYO9e4s2dCAxS7D6b6G,prolific_6737d40649c708c7e5c7360c,2025-03-19T11:19:42.039Z,75,,,,,,,,,
ESYO9e4s2dCAxS7D6b6G,prolific_6737d40649c708c7e5c7360c,2025-03-19T11:19:42.039Z,76,response,t,t,450,,1,+1.00$,"[0.5,0.7,0.3]",0.7
ESYO9e4s2dCAxS7D6b6G,prolific_6737d40649c708c7e5c7360c,2025-03-19T11:19:42.039Z,77,,,,1000,,,,,
ESYO9e4s2dCAxS7D6b6G,prolific_6737d40649c708c7e5c7360c,2025-03-19T11:19:42.039Z,78,,,,,4.44339236,,,,
ESYO9e4s2dCAxS7D6b6G,prolific_6737d40649c708c7e5c7360c,2025-03-19T11:19:42.039Z,78,,,,,,,,,
ESYO9e4s2dCAxS7D6b6G,prolific_6737d40649c708c7e5c7360c,2025-03-19T11:19:42.039Z,79,response,t,t,493,,,0.00$,"[0.5,0.7,0.3]",0.7
ESYO9e4s2dCAxS7D6b6G,prolific_6737d40649c708c7e5c7360c,2025-03-19T11:19:42.039Z,80,,,,1000,,,,,
ESYO9e4s2dCAxS7D6b6G,prolific_6737d40649c708c7e5c7360c,2025-03-19T11:19:42.039Z,81,,,,,1.24078153,,,,
ESYO9e4s2dCAxS7D6b6G,prolific_6737d40649c708c7e5c7360c,2025-03-19T11:19:42.039Z,81,,,,,,,,,
ESYO9e4s2dCAxS7D6b6G,prolific_6737d40649c708c7e5c7360c,2025-03-19T11:19:42.039Z,82,response,q,q,638,,,0.00$,"[0.5,0.7,0.3]",0.5
ESYO9e4s2dCAxS7D6b6G,prolific_6737d40649c708c7e5c7360c,2025-03-19T11:19:42.039Z,83,,,,1000,,,,,
ESYO9e4s2dCAxS7D6b6G,prolific_6737d40649c708c7e5c7360c,2025-03-19T11:19:42.039Z,84,,,,,4.65645066,,,,
ESYO9e4s2dCAxS7D6b6G,prolific_6737d40649c708c7e5c7360c,2025-03-19T11:19:42.039Z,84,,,,,,,,,
ESYO9e4s2dCAxS7D6b6G,prolific_6737d40649c708c7e5c7360c,2025-03-19T11:19:42.039Z,85,response,p,p,468,,,0.00$,"[0.5,0.7,0.3]",0.3
ESYO9e4s2dCAxS7D6b6G,prolific_6737d40649c708c7e5c7360c,2025-03-19T11:19:42.039Z,86,,,,1000,,,,,
ESYO9e4s2dCAxS7D6b6G,prolific_6737d40649c708c7e5c7360c,2025-03-19T11:19:42.039Z,87,,,,,4.71725242,,,,
ESYO9e4s2dCAxS7D6b6G,prolific_6737d40649c708c7e5c7360c,2025-03-19T11:19:42.039Z,87,,,,,,,,,
ESYO9e4s2dCAxS7D6b6G,prolific_6737d40649c708c7e5c7360c,2025-03-19T11:19:42.039Z,88,response,q,q,426,,,0.00$,"[0.5,0.7,0.3]",0.5
ESYO9e4s2dCAxS7D6b6G,prolific_6737d40649c708c7e5c7360c,2025-03-19T11:19:42.039Z,89,,,,1000,,,,,
ESYO9e4s2dCAxS7D6b6G,prolific_6737d40649c708c7e5c7360c,2025-03-19T11:19:42.039Z,90,,,,,4.42389611,,,,
ESYO9e4s2dCAxS7D6b6G,prolific_6737d40649c708c7e5c7360c,2025-03-19T11:19:42.039Z,90,,,,,,,,,
ESYO9e4s2dCAxS7D6b6G,prolific_6737d40649c708c7e5c7360c,2025-03-19T11:19:42.039Z,91,response,t,t,453,,1,+1.00$,"[0.5,0.7,0.3]",0.7
ESYO9e4s2dCAxS7D6b6G,prolific_6737d40649c708c7e5c7360c,2025-03-19T11:19:42.039Z,92,,,,1000,,,,,
ESYO9e4s2dCAxS7D6b6G,prolific_6737d40649c708c7e5c7360c,2025-03-19T11:19:42.039Z,93,,,,,2.25875576,,,,
ESYO9e4s2dCAxS7D6b6G,prolific_6737d40649c708c7e5c7360c,2025-03-19T11:19:42.039Z,93,,,,,,,,,
ESYO9e4s2dCAxS7D6b6G,prolific_6737d40649c708c7e5c7360c,2025-03-19T11:19:42.039Z,94,response,t,t,746,,1,+1.00$,"[0.5,0.7,0.3]",0.7
ESYO9e4s2dCAxS7D6b6G,prolific_6737d40649c708c7e5c7360c,2025-03-19T11:19:42.039Z,95,,,,1000,,,,,
ESYO9e4s2dCAxS7D6b6G,prolific_6737d40649c708c7e5c7360c,2025-03-19T11:19:42.039Z,96,,,,,3.91494587,,,,
ESYO9e4s2dCAxS7D6b6G,prolific_6737d40649c708c7e5c7360c,2025-03-19T11:19:42.039Z,96,,,,,,,,,
ESYO9e4s2dCAxS7D6b6G,prolific_6737d40649c708c7e5c7360c,2025-03-19T11:19:42.039Z,97,response,q,q,487,,1,+1.00$,"[0.5,0.7,0.3]",0.5
ESYO9e4s2dCAxS7D6b6G,prolific_6737d40649c708c7e5c7360c,2025-03-19T11:19:42.039Z,98,,,,1000,,,,,
ESYO9e4s2dCAxS7D6b6G,prolific_6737d40649c708c7e5c7360c,2025-03-19T11:19:42.039Z,99,,,,,4.58203134,,,,
ESYO9e4s2dCAxS7D6b6G,prolific_6737d40649c708c7e5c7360c,2025-03-19T11:19:42.039Z,99,,,,,,,,,
ESYO9e4s2dCAxS7D6b6G,prolific_6737d40649c708c7e5c7360c,2025-03-19T11:19:42.039Z,100,response,t,t,409,,,0.00$,"[0.5,0.7,0.3]",0.7
ESYO9e4s2dCAxS7D6b6G,prolific_6737d40649c708c7e5c7360c,2025-03-19T11:19:42.039Z,101,,,,1000,,,,,
ESYO9e4s2dCAxS7D6b6G,prolific_6737d40649c708c7e5c7360c,2025-03-19T11:19:42.039Z,102,,,,,2.85765018,,,,
ESYO9e4s2dCAxS7D6b6G,prolific_6737d40649c708c7e5c7360c,2025-03-19T11:19:42.039Z,102,,,,,,,,,
ESYO9e4s2dCAxS7D6b6G,prolific_6737d40649c708c7e5c7360c,2025-03-19T11:19:42.039Z,103,response,q,q,575,,,0.00$,"[0.5,0.7,0.3]",0.5
ESYO9e4s2dCAxS7D6b6G,prolific_6737d40649c708c7e5c7360c,2025-03-19T11:19:42.039Z,104,,,,1000,,,,,
ESYO9e4s2dCAxS7D6b6G,prolific_6737d40649c708c7e5c7360c,2025-03-19T11:19:42.039Z,105,,,,,1.8988998,,,,
ESYO9e4s2dCAxS7D6b6G,prolific_6737d40649c708c7e5c7360c,2025-03-19T11:19:42.039Z,105,,,,,,,,,
ESYO9e4s2dCAxS7D6b6G,prolific_6737d40649c708c7e5c7360c,2025-03-19T11:19:42.039Z,106,response,t,t,584,,1,+1.00$,"[0.5,0.7,0.3]",0.7
ESYO9e4s2dCAxS7D6b6G,prolific_6737d40649c708c7e5c7360c,2025-03-19T11:19:42.039Z,107,,,,1000,,,,,
ESYO9e4s2dCAxS7D6b6G,prolific_6737d40649c708c7e5c7360c,2025-03-19T11:19:42.039Z,108,,,,,1.97473574,,,,
ESYO9e4s2dCAxS7D6b6G,prolific_6737d40649c708c7e5c7360c,2025-03-19T11:19:42.039Z,108,,,,,,,,,
ESYO9e4s2dCAxS7D6b6G,prolific_6737d40649c708c7e5c7360c,2025-03-19T11:19:42.039Z,109,response,q,q,525,,,0.00$,"[0.5,0.7,0.3]",0.5
ESYO9e4s2dCAxS7D6b6G,prolific_6737d40649c708c7e5c7360c,2025-03-19T11:19:42.039Z,110,,,,1000,,,,,
ESYO9e4s2dCAxS7D6b6G,prolific_6737d40649c708c7e5c7360c,2025-03-19T11:19:42.039Z,111,,,,,3.44448521,,,,
ESYO9e4s2dCAxS7D6b6G,prolific_6737d40649c708c7e5c7360c,2025-03-19T11:19:42.039Z,111,,,,,,,,,
ESYO9e4s2dCAxS7D6b6G,prolific_6737d40649c708c7e5c7360c,2025-03-19T11:19:42.039Z,112,response,t,t,504,,,0.00$,"[0.5,0.7,0.3]",0.7
ESYO9e4s2dCAxS7D6b6G,prolific_6737d40649c708c7e5c7360c,2025-03-19T11:19:42.039Z,113,,,,1000,,,,,
ESYO9e4s2dCAxS7D6b6G,prolific_6737d40649c708c7e5c7360c,2025-03-19T11:19:42.039Z,114,,,,,1.01394596,,,,
ESYO9e4s2dCAxS7D6b6G,prolific_6737d40649c708c7e5c7360c,2025-03-19T11:19:42.039Z,114,,,,,,,,,
ESYO9e4s2dCAxS7D6b6G,prolific_6737d40649c708c7e5c7360c,2025-03-19T11:19:42.039Z,115,response,q,q,591,,1,+1.00$,"[0.5,0.7,0.3]",0.5
ESYO9e4s2dCAxS7D6b6G,prolific_6737d40649c708c7e5c7360c,2025-03-19T11:19:42.039Z,116,,,,1000,,,,,
ESYO9e4s2dCAxS7D6b6G,prolific_6737d40649c708c7e5c7360c,2025-03-19T11:19:42.039Z,117,,,,,3.17386958,,,,
ESYO9e4s2dCAxS7D6b6G,prolific_6737d40649c708c7e5c7360c,2025-03-19T11:19:42.039Z,117,,,,,,,,,
ESYO9e4s2dCAxS7D6b6G,prolific_6737d40649c708c7e5c7360c,2025-03-19T11:19:42.039Z,118,response,q,q,555,,,0.00$,"[0.5,0.7,0.3]",0.5
ESYO9e4s2dCAxS7D6b6G,prolific_6737d40649c708c7e5c7360c,2025-03-19T11:19:42.039Z,119,,,,1000,,,,,
ESYO9e4s2dCAxS7D6b6G,prolific_6737d40649c708c7e5c7360c,2025-03-19T11:19:42.039Z,120,,,,,1.24415086,,,,
ESYO9e4s2dCAxS7D6b6G,prolific_6737d40649c708c7e5c7360c,2025-03-19T11:19:42.039Z,120,,,,,,,,,
ESYO9e4s2dCAxS7D6b6G,prolific_6737d40649c708c7e5c7360c,2025-03-19T11:19:42.039Z,121,response,t,t,473,,1,+1.00$,"[0.5,0.7,0.3]",0.7
ESYO9e4s2dCAxS7D6b6G,prolific_6737d40649c708c7e5c7360c,2025-03-19T11:19:42.039Z,122,,,,1000,,,,,
ESYO9e4s2dCAxS7D6b6G,prolific_6737d40649c708c7e5c7360c,2025-03-19T11:19:42.039Z,123,,,,,1.30162451,,,,
ESYO9e4s2dCAxS7D6b6G,prolific_6737d40649c708c7e5c7360c,2025-03-19T11:19:42.039Z,123,,,,,,,,,
ESYO9e4s2dCAxS7D6b6G,prolific_6737d40649c708c7e5c7360c,2025-03-19T11:19:42.039Z,124,response,q,q,1064,,,0.00$,"[0.5,0.7,0.3]",0.5
ESYO9e4s2dCAxS7D6b6G,prolific_6737d40649c708c7e5c7360c,2025-03-19T11:19:42.039Z,125,,,,1000,,,,,
ESYO9e4s2dCAxS7D6b6G,prolific_6737d40649c708c7e5c7360c,2025-03-19T11:19:42.039Z,126,,,,,1.87549279,,,,
ESYO9e4s2dCAxS7D6b6G,prolific_6737d40649c708c7e5c7360c,2025-03-19T11:19:42.039Z,126,,,,,,,,,
ESYO9e4s2dCAxS7D6b6G,prolific_6737d40649c708c7e5c7360c,2025-03-19T11:19:42.039Z,127,response,t,t,387,,1,+1.00$,"[0.5,0.7,0.3]",0.7
ESYO9e4s2dCAxS7D6b6G,prolific_6737d40649c708c7e5c7360c,2025-03-19T11:19:42.039Z,128,,,,1000,,,,,
ESYO9e4s2dCAxS7D6b6G,prolific_6737d40649c708c7e5c7360c,2025-03-19T11:19:42.039Z,129,,,,,3.99800967,,,,
ESYO9e4s2dCAxS7D6b6G,prolific_6737d40649c708c7e5c7360c,2025-03-19T11:19:42.039Z,129,,,,,,,,,
ESYO9e4s2dCAxS7D6b6G,prolific_6737d40649c708c7e5c7360c,2025-03-19T11:19:42.039Z,130,response,t,t,489,,1,+1.00$,"[0.5,0.7,0.3]",0.7
ESYO9e4s2dCAxS7D6b6G,prolific_6737d40649c708c7e5c7360c,2025-03-19T11:19:42.039Z,131,,,,1000,,,,,
ESYO9e4s2dCAxS7D6b6G,prolific_6737d40649c708c7e5c7360c,2025-03-19T11:19:42.039Z,132,,,,,3.654616,,,,
ESYO9e4s2dCAxS7D6b6G,prolific_6737d40649c708c7e5c7360c,2025-03-19T11:19:42.039Z,132,,,,,,,,,
ESYO9e4s2dCAxS7D6b6G,prolific_6737d40649c708c7e5c7360c,2025-03-19T11:19:42.039Z,133,response,q,q,375,,1,+1.00$,"[0.5,0.7,0.3]",0.5
ESYO9e4s2dCAxS7D6b6G,prolific_6737d40649c708c7e5c7360c,2025-03-19T11:19:42.039Z,134,,,,1000,,,,,
ESYO9e4s2dCAxS7D6b6G,prolific_6737d40649c708c7e5c7360c,2025-03-19T11:19:42.039Z,135,,,,,2.68921955,,,,
ESYO9e4s2dCAxS7D6b6G,prolific_6737d40649c708c7e5c7360c,2025-03-19T11:19:42.039Z,135,,,,,,,,,
ESYO9e4s2dCAxS7D6b6G,prolific_6737d40649c708c7e5c7360c,2025-03-19T11:19:42.039Z,136,response,t,t,498,,,0.00$,"[0.5,0.7,0.3]",0.7
ESYO9e4s2dCAxS7D6b6G,prolific_6737d40649c708c7e5c7360c,2025-03-19T11:19:42.039Z,137,,,,1000,,,,,
ESYO9e4s2dCAxS7D6b6G,prolific_6737d40649c708c7e5c7360c,2025-03-19T11:19:42.039Z,138,,,,,3.93897413,,,,
ESYO9e4s2dCAxS7D6b6G,prolific_6737d40649c708c7e5c7360c,2025-03-19T11:19:42.039Z,138,,,,,,,,,
ESYO9e4s2dCAxS7D6b6G,prolific_6737d40649c708c7e5c7360c,2025-03-19T11:19:42.039Z,139,response,q,q,364,,,0.00$,"[0.5,0.7,0.3]",0.5
ESYO9e4s2dCAxS7D6b6G,prolific_6737d40649c708c7e5c7360c,2025-03-19T11:19:42.039Z,140,,,,1000,,,,,
ESYO9e4s2dCAxS7D6b6G,prolific_6737d40649c708c7e5c7360c,2025-03-19T11:19:42.039Z,141,,,,,4.50856021,,,,
ESYO9e4s2dCAxS7D6b6G,prolific_6737d40649c708c7e5c7360c,2025-03-19T11:19:42.039Z,141,,,,,,,,,
ESYO9e4s2dCAxS7D6b6G,prolific_6737d40649c708c7e5c7360c,2025-03-19T11:19:42.039Z,142,response,t,t,391,,1,+1.00$,"[0.5,0.7,0.3]",0.7
ESYO9e4s2dCAxS7D6b6G,prolific_6737d40649c708c7e5c7360c,2025-03-19T11:19:42.039Z,143,,,,1000,,,,,
ESYO9e4s2dCAxS7D6b6G,prolific_6737d40649c708c7e5c7360c,2025-03-19T11:19:42.039Z,144,,,,,4.77221725,,,,
ESYO9e4s2dCAxS7D6b6G,prolific_6737d40649c708c7e5c7360c,2025-03-19T11:19:42.039Z,144,,,,,,,,,
ESYO9e4s2dCAxS7D6b6G,prolific_6737d40649c708c7e5c7360c,2025-03-19T11:19:42.039Z,145,response,t,t,429,,1,+1.00$,"[0.5,0.7,0.3]",0.7
ESYO9e4s2dCAxS7D6b6G,prolific_6737d40649c708c7e5c7360c,2025-03-19T11:19:42.039Z,146,,,,1000,,,,,
